stim_num,space_press.keys,space_press.rt,wine_beer_choice.keys,wine_beer_choice.rt,spirits_alcopops_choice.keys,spirits_alcopops_choice.rt,nonalc_choice1.keys,nonalc_choice1.rt,nonalc_choice2.keys,nonalc_choice2.rt,scene_choice_2.keys,scene_choice_2.rt,key_resp_3.keys,key_resp_3.rt,key_resp_4.keys,key_resp_4.rt,key_resp_5.keys,key_resp_5.rt,key_resp_6.keys,key_resp_6.rt,key_resp_7.keys,key_resp_7.rt,alc_cue,rating.keys,key_resp_8.keys,run1.thisRepN,run1.thisTrialN,run1.thisN,run1.thisIndex,run1.ran,condition,file,orientation,medium,iti,post_stim_fix,run,pID,date,expName,psychopyVersion,OS,frameRate,rating.rt,key_resp_2.keys,key_resp_2.rt,run2.thisRepN,run2.thisTrialN,run2.thisN,run2.thisIndex,run2.ran,type,subtype,val_cond,source_cond,rating.keys_z
18,space,12.694525,2,7.21822,1,2.61398,2,7.216175,1,1.657175,2,6.17176,space,72.971085,space,4.300975,space,6.37819,space,4.04725,space,5.95613,SDC11012,NA,NA,0,0,0,0,1,anti_prof,ap49.png,landscape,website,0.25,0.25,1,435044_study2,2020-11-13_22h51.03.295,alcohol_value_task,2020.1.3,Win32,60,NA,NA,NA,NA,NA,NA,NA,NA,alcohol,alcopops,anti-alcohol,professional,NA
NA,NA,NA,NA,NA,NA,NA,NA,NA,NA,NA,NA,NA,NA,NA,NA,NA,NA,NA,NA,NA,NA,NA,SDC11012,4,NA,0,1,1,1,1,anti_soc,as56.png,portrait,website,0.5,0.75,1,435044_study2,2020-11-13_22h51.03.295,alcohol_value_task,2020.1.3,Win32,60,0.379495,NA,NA,NA,NA,NA,NA,NA,alcohol,alcopops,anti-alcohol,peer-produced,0.8011006992557882
NA,NA,NA,NA,NA,NA,NA,NA,NA,NA,NA,NA,NA,NA,NA,NA,NA,NA,NA,NA,NA,NA,NA,SDC11012,3,NA,0,2,2,2,1,pro_soc,ps14.png,portrait,website,0.75,0.5,1,435044_study2,2020-11-13_22h51.03.295,alcohol_value_task,2020.1.3,Win32,60,0.300585,NA,NA,NA,NA,NA,NA,NA,alcohol,alcopops,pro-alcohol,peer-produced,0.10239756578505452
NA,NA,NA,NA,NA,NA,NA,NA,NA,NA,NA,NA,NA,NA,NA,NA,NA,NA,NA,NA,NA,NA,NA,SDC11012,5,NA,0,3,3,3,1,pro_prof,pp53.png,portrait,website,0.25,0.25,1,435044_study2,2020-11-13_22h51.03.295,alcohol_value_task,2020.1.3,Win32,60,0.327785,NA,NA,NA,NA,NA,NA,NA,alcohol,alcopops,pro-alcohol,professional,1.499803832726522
NA,NA,NA,NA,NA,NA,NA,NA,NA,NA,NA,NA,NA,NA,NA,NA,NA,NA,NA,NA,NA,NA,NA,SDC11128,4,NA,0,4,4,4,1,pro_soc,ps35.png,portrait,social_media,0.75,0.75,1,435044_study2,2020-11-13_22h51.03.295,alcohol_value_task,2020.1.3,Win32,60,0.349955,NA,NA,NA,NA,NA,NA,NA,alcohol,wine,pro-alcohol,peer-produced,0.8011006992557882
NA,NA,NA,NA,NA,NA,NA,NA,NA,NA,NA,NA,NA,NA,NA,NA,NA,NA,NA,NA,NA,NA,NA,SDC11128,3,NA,0,5,5,5,1,pro_prof,pp44.png,portrait,website,0.5,1,1,435044_study2,2020-11-13_22h51.03.295,alcohol_value_task,2020.1.3,Win32,60,0.225545,NA,NA,NA,NA,NA,NA,NA,alcohol,wine,pro-alcohol,professional,0.10239756578505452
NA,NA,NA,NA,NA,NA,NA,NA,NA,NA,NA,NA,NA,NA,NA,NA,NA,NA,NA,NA,NA,NA,NA,SDC11140,4,NA,0,6,6,6,1,pro_soc,ps7.png,landscape,social_media,0.25,0.5,1,435044_study2,2020-11-13_22h51.03.295,alcohol_value_task,2020.1.3,Win32,60,0.38451,NA,NA,NA,NA,NA,NA,NA,alcohol,alcopops,pro-alcohol,peer-produced,0.8011006992557882
NA,NA,NA,NA,NA,NA,NA,NA,NA,NA,NA,NA,NA,NA,NA,NA,NA,NA,NA,NA,NA,NA,NA,SDC11128,2,NA,0,7,7,7,1,anti_prof,ap23.png,portrait,website,1,1,1,435044_study2,2020-11-13_22h51.03.295,alcohol_value_task,2020.1.3,Win32,60,0.257265,NA,NA,NA,NA,NA,NA,NA,alcohol,wine,anti-alcohol,professional,-0.5963055676856792
NA,NA,NA,NA,NA,NA,NA,NA,NA,NA,NA,NA,NA,NA,NA,NA,NA,NA,NA,NA,NA,NA,NA,SDC11128,2,NA,0,8,8,8,1,anti_soc,as44.png,portrait,social_media,0.25,0.75,1,435044_study2,2020-11-13_22h51.03.295,alcohol_value_task,2020.1.3,Win32,60,0.23508,NA,NA,NA,NA,NA,NA,NA,alcohol,wine,anti-alcohol,peer-produced,-0.5963055676856792
NA,NA,NA,NA,NA,NA,NA,NA,NA,NA,NA,NA,NA,NA,NA,NA,NA,NA,NA,NA,NA,NA,NA,SDC10708,4,NA,0,9,9,9,1,pro_soc,ps33.png,landscape,social_media,1,0.75,1,435044_study2,2020-11-13_22h51.03.295,alcohol_value_task,2020.1.3,Win32,60,0.37118,NA,NA,NA,NA,NA,NA,NA,alcohol,wine,pro-alcohol,peer-produced,0.8011006992557882
NA,NA,NA,NA,NA,NA,NA,NA,NA,NA,NA,NA,NA,NA,NA,NA,NA,NA,NA,NA,NA,NA,NA,SDC11140,2,NA,0,10,10,10,1,anti_prof,ap87.png,landscape,social_media,1,1,1,435044_study2,2020-11-13_22h51.03.295,alcohol_value_task,2020.1.3,Win32,60,0.35536,NA,NA,NA,NA,NA,NA,NA,alcohol,alcopops,anti-alcohol,professional,-0.5963055676856792
NA,NA,NA,NA,NA,NA,NA,NA,NA,NA,NA,NA,NA,NA,NA,NA,NA,NA,NA,NA,NA,NA,NA,SDC10708,3,NA,0,11,11,11,1,anti_prof,ap34.png,landscape,social_media,0.75,0.5,1,435044_study2,2020-11-13_22h51.03.295,alcohol_value_task,2020.1.3,Win32,60,0.480365,NA,NA,NA,NA,NA,NA,NA,alcohol,wine,anti-alcohol,professional,0.10239756578505452
NA,NA,NA,NA,NA,NA,NA,NA,NA,NA,NA,NA,NA,NA,NA,NA,NA,NA,NA,NA,NA,NA,NA,SDC11140,4,NA,0,12,12,12,1,pro_prof,pp15.png,portrait,website,1,1,1,435044_study2,2020-11-13_22h51.03.295,alcohol_value_task,2020.1.3,Win32,60,0.56678,NA,NA,NA,NA,NA,NA,NA,alcohol,alcopops,pro-alcohol,professional,0.8011006992557882
NA,NA,NA,NA,NA,NA,NA,NA,NA,NA,NA,NA,NA,NA,NA,NA,NA,NA,NA,NA,NA,NA,NA,SDC11015,3,NA,0,13,13,13,1,pro_soc,ps29.png,portrait,social_media,0.75,0.25,1,435044_study2,2020-11-13_22h51.03.295,alcohol_value_task,2020.1.3,Win32,60,0.39349,NA,NA,NA,NA,NA,NA,NA,alcohol,alcopops,pro-alcohol,peer-produced,0.10239756578505452
NA,NA,NA,NA,NA,NA,NA,NA,NA,NA,NA,NA,NA,NA,NA,NA,NA,NA,NA,NA,NA,NA,NA,SDC10708,4,NA,0,14,14,14,1,pro_prof,pp27.png,portrait,social_media,0.75,0.75,1,435044_study2,2020-11-13_22h51.03.295,alcohol_value_task,2020.1.3,Win32,60,0.718985,NA,NA,NA,NA,NA,NA,NA,alcohol,wine,pro-alcohol,professional,0.8011006992557882
NA,NA,NA,NA,NA,NA,NA,NA,NA,NA,NA,NA,NA,NA,NA,NA,NA,NA,NA,NA,NA,NA,NA,SDC11015,3,NA,0,15,15,15,1,anti_prof,ap46.png,landscape,social_media,0.25,1,1,435044_study2,2020-11-13_22h51.03.295,alcohol_value_task,2020.1.3,Win32,60,0.650565,NA,NA,NA,NA,NA,NA,NA,alcohol,alcopops,anti-alcohol,professional,0.10239756578505452
NA,NA,NA,NA,NA,NA,NA,NA,NA,NA,NA,NA,NA,NA,NA,NA,NA,NA,NA,NA,NA,NA,NA,SDC11140,2,NA,0,16,16,16,1,anti_soc,as52.png,portrait,website,0.25,1,1,435044_study2,2020-11-13_22h51.03.295,alcohol_value_task,2020.1.3,Win32,60,0.475065,NA,NA,NA,NA,NA,NA,NA,alcohol,alcopops,anti-alcohol,peer-produced,-0.5963055676856792
NA,NA,NA,NA,NA,NA,NA,NA,NA,NA,NA,NA,NA,NA,NA,NA,NA,NA,NA,NA,NA,NA,NA,SDC11015,4,NA,0,17,17,17,1,pro_prof,pp42.png,portrait,social_media,0.5,0.25,1,435044_study2,2020-11-13_22h51.03.295,alcohol_value_task,2020.1.3,Win32,60,0.424835,NA,NA,NA,NA,NA,NA,NA,alcohol,alcopops,pro-alcohol,professional,0.8011006992557882
NA,NA,NA,NA,NA,NA,NA,NA,NA,NA,NA,NA,NA,NA,NA,NA,NA,NA,NA,NA,NA,NA,NA,SDC10759,2,NA,0,18,18,18,1,pro_prof,pp54.png,portrait,website,0.25,0.75,1,435044_study2,2020-11-13_22h51.03.295,alcohol_value_task,2020.1.3,Win32,60,0.48434,NA,NA,NA,NA,NA,NA,NA,non-alcohol,water,pro-alcohol,professional,-0.5963055676856792
NA,NA,NA,NA,NA,NA,NA,NA,NA,NA,NA,NA,NA,NA,NA,NA,NA,NA,NA,NA,NA,NA,NA,SDC11142,NA,NA,0,19,19,19,1,pro_prof,pp24.png,portrait,website,0.75,0.5,1,435044_study2,2020-11-13_22h51.03.295,alcohol_value_task,2020.1.3,Win32,60,NA,NA,NA,NA,NA,NA,NA,NA,alcohol,alcopops,pro-alcohol,professional,NA
NA,NA,NA,NA,NA,NA,NA,NA,NA,NA,NA,NA,NA,NA,NA,NA,NA,NA,NA,NA,NA,NA,NA,SDC10759,2,NA,0,20,20,20,1,pro_soc,ps21.png,landscape,website,1,0.75,1,435044_study2,2020-11-13_22h51.03.295,alcohol_value_task,2020.1.3,Win32,60,0.470115,NA,NA,NA,NA,NA,NA,NA,non-alcohol,water,pro-alcohol,peer-produced,-0.5963055676856792
NA,NA,NA,NA,NA,NA,NA,NA,NA,NA,NA,NA,NA,NA,NA,NA,NA,NA,NA,NA,NA,NA,NA,SDC11002,3,NA,0,21,21,21,1,pro_prof,pp57.png,portrait,website,0.5,0.5,1,435044_study2,2020-11-13_22h51.03.295,alcohol_value_task,2020.1.3,Win32,60,0.51509,NA,NA,NA,NA,NA,NA,NA,alcohol,alcopops,pro-alcohol,professional,0.10239756578505452
NA,NA,NA,NA,NA,NA,NA,NA,NA,NA,NA,NA,NA,NA,NA,NA,NA,NA,NA,NA,NA,NA,NA,SDC10708,2,NA,0,22,22,22,1,anti_soc,as58.png,portrait,website,0.75,0.25,1,435044_study2,2020-11-13_22h51.03.295,alcohol_value_task,2020.1.3,Win32,60,0.59652,NA,NA,NA,NA,NA,NA,NA,alcohol,wine,anti-alcohol,peer-produced,-0.5963055676856792
NA,NA,NA,NA,NA,NA,NA,NA,NA,NA,NA,NA,NA,NA,NA,NA,NA,NA,NA,NA,NA,NA,NA,SDC11142,3,NA,0,23,23,23,1,pro_soc,ps17.png,portrait,social_media,0.5,1,1,435044_study2,2020-11-13_22h51.03.295,alcohol_value_task,2020.1.3,Win32,60,0.683815,NA,NA,NA,NA,NA,NA,NA,alcohol,alcopops,pro-alcohol,peer-produced,0.10239756578505452
NA,NA,NA,NA,NA,NA,NA,NA,NA,NA,NA,NA,NA,NA,NA,NA,NA,NA,NA,NA,NA,NA,NA,SDC10759,2,NA,0,24,24,24,1,anti_prof,ap32.png,landscape,website,0.5,0.5,1,435044_study2,2020-11-13_22h51.03.295,alcohol_value_task,2020.1.3,Win32,60,0.54328,NA,NA,NA,NA,NA,NA,NA,non-alcohol,water,anti-alcohol,professional,-0.5963055676856792
NA,NA,NA,NA,NA,NA,NA,NA,NA,NA,NA,NA,NA,NA,NA,NA,NA,NA,NA,NA,NA,NA,NA,SDC11144,3,NA,0,25,25,25,1,pro_prof,pp12.png,portrait,social_media,0.5,0.75,1,435044_study2,2020-11-13_22h51.03.295,alcohol_value_task,2020.1.3,Win32,60,0.818515,NA,NA,NA,NA,NA,NA,NA,alcohol,alcopops,pro-alcohol,professional,0.10239756578505452
NA,NA,NA,NA,NA,NA,NA,NA,NA,NA,NA,NA,NA,NA,NA,NA,NA,NA,NA,NA,NA,NA,NA,SDC11142,2,NA,0,26,26,26,1,anti_prof,ap71.png,landscape,social_media,0.25,0.25,1,435044_study2,2020-11-13_22h51.03.295,alcohol_value_task,2020.1.3,Win32,60,0.60206,NA,NA,NA,NA,NA,NA,NA,alcohol,alcopops,anti-alcohol,professional,-0.5963055676856792
NA,NA,NA,NA,NA,NA,NA,NA,NA,NA,NA,NA,NA,NA,NA,NA,NA,NA,NA,NA,NA,NA,NA,SDC11002,3,NA,0,27,27,27,1,pro_soc,ps52.png,landscape,website,0.25,0.75,1,435044_study2,2020-11-13_22h51.03.295,alcohol_value_task,2020.1.3,Win32,60,0.52977,NA,NA,NA,NA,NA,NA,NA,alcohol,alcopops,pro-alcohol,peer-produced,0.10239756578505452
NA,NA,NA,NA,NA,NA,NA,NA,NA,NA,NA,NA,NA,NA,NA,NA,NA,NA,NA,NA,NA,NA,NA,SDC11002,4,NA,0,28,28,28,1,anti_prof,ap53.png,landscape,social_media,0.5,0.75,1,435044_study2,2020-11-13_22h51.03.295,alcohol_value_task,2020.1.3,Win32,60,0.75532,NA,NA,NA,NA,NA,NA,NA,alcohol,alcopops,anti-alcohol,professional,0.8011006992557882
NA,NA,NA,NA,NA,NA,NA,NA,NA,NA,NA,NA,NA,NA,NA,NA,NA,NA,NA,NA,NA,NA,NA,SDC11144,3,NA,0,29,29,29,1,anti_prof,ap16.png,portrait,website,0.25,0.25,1,435044_study2,2020-11-13_22h51.03.295,alcohol_value_task,2020.1.3,Win32,60,0.35052,NA,NA,NA,NA,NA,NA,NA,alcohol,alcopops,anti-alcohol,professional,0.10239756578505452
NA,NA,NA,NA,NA,NA,NA,NA,NA,NA,NA,NA,NA,NA,NA,NA,NA,NA,NA,NA,NA,NA,NA,SDC11015,2,NA,0,30,30,30,1,anti_soc,as46.png,portrait,website,1,1,1,435044_study2,2020-11-13_22h51.03.295,alcohol_value_task,2020.1.3,Win32,60,0.307595,NA,NA,NA,NA,NA,NA,NA,alcohol,alcopops,anti-alcohol,peer-produced,-0.5963055676856792
NA,NA,NA,NA,NA,NA,NA,NA,NA,NA,NA,NA,NA,NA,NA,NA,NA,NA,NA,NA,NA,NA,NA,SDC11144,4,NA,0,31,31,31,1,pro_soc,ps28.png,landscape,website,1,0.5,1,435044_study2,2020-11-13_22h51.03.295,alcohol_value_task,2020.1.3,Win32,60,0.60282,NA,NA,NA,NA,NA,NA,NA,alcohol,alcopops,pro-alcohol,peer-produced,0.8011006992557882
NA,NA,NA,NA,NA,NA,NA,NA,NA,NA,NA,NA,NA,NA,NA,NA,NA,NA,NA,NA,NA,NA,NA,SDC10691,2,NA,0,32,32,32,1,anti_prof,ap54.png,portrait,website,0.25,0.75,1,435044_study2,2020-11-13_22h51.03.295,alcohol_value_task,2020.1.3,Win32,60,0.781095,NA,NA,NA,NA,NA,NA,NA,alcohol,wine,anti-alcohol,professional,-0.5963055676856792
NA,NA,NA,NA,NA,NA,NA,NA,NA,NA,NA,NA,NA,NA,NA,NA,NA,NA,NA,NA,NA,NA,NA,SDC10691,5,NA,0,33,33,33,1,pro_prof,pp39.png,portrait,social_media,0.5,1,1,435044_study2,2020-11-13_22h51.03.295,alcohol_value_task,2020.1.3,Win32,60,0.29425,NA,NA,NA,NA,NA,NA,NA,alcohol,wine,pro-alcohol,professional,1.499803832726522
NA,NA,NA,NA,NA,NA,NA,NA,NA,NA,NA,NA,NA,NA,NA,NA,NA,NA,NA,NA,NA,NA,NA,SDC10691,3,NA,0,34,34,34,1,pro_soc,ps58.png,portrait,social_media,0.25,0.75,1,435044_study2,2020-11-13_22h51.03.295,alcohol_value_task,2020.1.3,Win32,60,0.769695,NA,NA,NA,NA,NA,NA,NA,alcohol,wine,pro-alcohol,peer-produced,0.10239756578505452
NA,NA,NA,NA,NA,NA,NA,NA,NA,NA,NA,NA,NA,NA,NA,NA,NA,NA,NA,NA,NA,NA,NA,SDC10759,5,NA,0,35,35,35,1,anti_soc,as29.png,portrait,website,1,0.25,1,435044_study2,2020-11-13_22h51.03.295,alcohol_value_task,2020.1.3,Win32,60,0.526525,NA,NA,NA,NA,NA,NA,NA,non-alcohol,water,anti-alcohol,peer-produced,1.499803832726522
NA,NA,NA,NA,NA,NA,NA,NA,NA,NA,NA,NA,NA,NA,NA,NA,NA,NA,NA,NA,NA,NA,NA,SDC11142,3,NA,0,36,36,36,1,anti_soc,as8.png,portrait,social_media,1,0.75,1,435044_study2,2020-11-13_22h51.03.295,alcohol_value_task,2020.1.3,Win32,60,0.23375,NA,NA,NA,NA,NA,NA,NA,alcohol,alcopops,anti-alcohol,peer-produced,0.10239756578505452
NA,NA,NA,NA,NA,NA,NA,NA,NA,NA,NA,NA,NA,NA,NA,NA,NA,NA,NA,NA,NA,NA,NA,SDC11028,1,NA,0,37,37,37,1,anti_prof,ap67.png,portrait,website,0.5,0.25,1,435044_study2,2020-11-13_22h51.03.295,alcohol_value_task,2020.1.3,Win32,60,0.728585,NA,NA,NA,NA,NA,NA,NA,alcohol,alcopops,anti-alcohol,professional,-1.2950087011564129
NA,NA,NA,NA,NA,NA,NA,NA,NA,NA,NA,NA,NA,NA,NA,NA,NA,NA,NA,NA,NA,NA,NA,SDC11028,2,NA,0,38,38,38,1,pro_prof,pp14.png,portrait,website,1,0.5,1,435044_study2,2020-11-13_22h51.03.295,alcohol_value_task,2020.1.3,Win32,60,0.48329,NA,NA,NA,NA,NA,NA,NA,alcohol,alcopops,pro-alcohol,professional,-0.5963055676856792
NA,NA,NA,NA,NA,NA,NA,NA,NA,NA,NA,NA,NA,NA,NA,NA,NA,NA,NA,NA,NA,NA,NA,SDC11002,4,NA,0,39,39,39,1,anti_soc,as6.png,portrait,website,0.5,1,1,435044_study2,2020-11-13_22h51.03.295,alcohol_value_task,2020.1.3,Win32,60,0.81006,NA,NA,NA,NA,NA,NA,NA,alcohol,alcopops,anti-alcohol,peer-produced,0.8011006992557882
NA,NA,NA,NA,NA,NA,NA,NA,NA,NA,NA,NA,NA,NA,NA,NA,NA,NA,NA,NA,NA,NA,NA,SDC10817,3,NA,0,40,40,40,1,anti_prof,ap82.png,landscape,social_media,0.75,0.5,1,435044_study2,2020-11-13_22h51.03.295,alcohol_value_task,2020.1.3,Win32,60,0.650315,NA,NA,NA,NA,NA,NA,NA,non-alcohol,soft_drinks,anti-alcohol,professional,0.10239756578505452
NA,NA,NA,NA,NA,NA,NA,NA,NA,NA,NA,NA,NA,NA,NA,NA,NA,NA,NA,NA,NA,NA,NA,SDC10817,4,NA,0,41,41,41,1,pro_prof,pp13.png,portrait,social_media,0.25,0.5,1,435044_study2,2020-11-13_22h51.03.295,alcohol_value_task,2020.1.3,Win32,60,0.66436,NA,NA,NA,NA,NA,NA,NA,non-alcohol,soft_drinks,pro-alcohol,professional,0.8011006992557882
NA,NA,NA,NA,NA,NA,NA,NA,NA,NA,NA,NA,NA,NA,NA,NA,NA,NA,NA,NA,NA,NA,NA,SDC11028,3,NA,0,42,42,42,1,pro_soc,ps42.png,portrait,social_media,0.25,0.5,1,435044_study2,2020-11-13_22h51.03.295,alcohol_value_task,2020.1.3,Win32,60,0.654465,NA,NA,NA,NA,NA,NA,NA,alcohol,alcopops,pro-alcohol,peer-produced,0.10239756578505452
NA,NA,NA,NA,NA,NA,NA,NA,NA,NA,NA,NA,NA,NA,NA,NA,NA,NA,NA,NA,NA,NA,NA,SDC12112,2,NA,0,43,43,43,1,anti_prof,ap69.png,portrait,website,0.25,0.25,1,435044_study2,2020-11-13_22h51.03.295,alcohol_value_task,2020.1.3,Win32,60,0.603565,NA,NA,NA,NA,NA,NA,NA,alcohol,wine,anti-alcohol,professional,-0.5963055676856792
NA,NA,NA,NA,NA,NA,NA,NA,NA,NA,NA,NA,NA,NA,NA,NA,NA,NA,NA,NA,NA,NA,NA,SDC11012,1,NA,NA,NA,NA,NA,NA,anti_prof,ap19.png,portrait,social_media,0.75,1,2,435044_study2,2020-11-13_22h51.03.295,alcohol_value_task,2020.1.3,Win32,60,0.418915,space,2.083345,0,0,0,0,1,alcohol,alcopops,anti-alcohol,professional,-1.2950087011564129
NA,NA,NA,NA,NA,NA,NA,NA,NA,NA,NA,NA,NA,NA,NA,NA,NA,NA,NA,NA,NA,NA,NA,SDC11128,2,NA,NA,NA,NA,NA,NA,anti_prof,ap50.png,landscape,social_media,0.5,0.5,2,435044_study2,2020-11-13_22h51.03.295,alcohol_value_task,2020.1.3,Win32,60,0.45105,NA,NA,0,1,1,1,1,alcohol,wine,anti-alcohol,professional,-0.5963055676856792
NA,NA,NA,NA,NA,NA,NA,NA,NA,NA,NA,NA,NA,NA,NA,NA,NA,NA,NA,NA,NA,NA,NA,SDC11012,3,NA,NA,NA,NA,NA,NA,pro_soc,ps22.png,landscape,website,1,0.25,2,435044_study2,2020-11-13_22h51.03.295,alcohol_value_task,2020.1.3,Win32,60,0.393065,NA,NA,0,2,2,2,1,alcohol,alcopops,pro-alcohol,peer-produced,0.10239756578505452
NA,NA,NA,NA,NA,NA,NA,NA,NA,NA,NA,NA,NA,NA,NA,NA,NA,NA,NA,NA,NA,NA,NA,SDC11012,4,NA,NA,NA,NA,NA,NA,anti_soc,as25.png,portrait,website,0.5,0.75,2,435044_study2,2020-11-13_22h51.03.295,alcohol_value_task,2020.1.3,Win32,60,0.30886,NA,NA,0,3,3,3,1,alcohol,alcopops,anti-alcohol,peer-produced,0.8011006992557882
NA,NA,NA,NA,NA,NA,NA,NA,NA,NA,NA,NA,NA,NA,NA,NA,NA,NA,NA,NA,NA,NA,NA,SDC11012,3,NA,NA,NA,NA,NA,NA,pro_prof,pp60.png,portrait,website,0.25,0.75,2,435044_study2,2020-11-13_22h51.03.295,alcohol_value_task,2020.1.3,Win32,60,0.440695,NA,NA,0,4,4,4,1,alcohol,alcopops,pro-alcohol,professional,0.10239756578505452
NA,NA,NA,NA,NA,NA,NA,NA,NA,NA,NA,NA,NA,NA,NA,NA,NA,NA,NA,NA,NA,NA,NA,SDC11140,4,NA,NA,NA,NA,NA,NA,anti_prof,ap39.png,portrait,website,0.5,0.5,2,435044_study2,2020-11-13_22h51.03.295,alcohol_value_task,2020.1.3,Win32,60,0.50472,NA,NA,0,5,5,5,1,alcohol,alcopops,anti-alcohol,professional,0.8011006992557882
NA,NA,NA,NA,NA,NA,NA,NA,NA,NA,NA,NA,NA,NA,NA,NA,NA,NA,NA,NA,NA,NA,NA,SDC11128,3,NA,NA,NA,NA,NA,NA,pro_soc,ps27.png,portrait,website,0.75,0.75,2,435044_study2,2020-11-13_22h51.03.295,alcohol_value_task,2020.1.3,Win32,60,1.42655,NA,NA,0,6,6,6,1,alcohol,wine,pro-alcohol,peer-produced,0.10239756578505452
NA,NA,NA,NA,NA,NA,NA,NA,NA,NA,NA,NA,NA,NA,NA,NA,NA,NA,NA,NA,NA,NA,NA,SDC11128,2,NA,NA,NA,NA,NA,NA,anti_soc,as45.png,portrait,social_media,0.25,1,2,435044_study2,2020-11-13_22h51.03.295,alcohol_value_task,2020.1.3,Win32,60,0.76393,NA,NA,0,7,7,7,1,alcohol,wine,anti-alcohol,peer-produced,-0.5963055676856792
NA,NA,NA,NA,NA,NA,NA,NA,NA,NA,NA,NA,NA,NA,NA,NA,NA,NA,NA,NA,NA,NA,NA,SDC11128,3,NA,NA,NA,NA,NA,NA,pro_prof,pp18.png,portrait,social_media,0.75,0.5,2,435044_study2,2020-11-13_22h51.03.295,alcohol_value_task,2020.1.3,Win32,60,0.746685,NA,NA,0,8,8,8,1,alcohol,wine,pro-alcohol,professional,0.10239756578505452
NA,NA,NA,NA,NA,NA,NA,NA,NA,NA,NA,NA,NA,NA,NA,NA,NA,NA,NA,NA,NA,NA,NA,SDC11140,2,NA,NA,NA,NA,NA,NA,pro_prof,pp26.png,portrait,social_media,0.5,0.5,2,435044_study2,2020-11-13_22h51.03.295,alcohol_value_task,2020.1.3,Win32,60,1.05161,NA,NA,0,9,9,9,1,alcohol,alcopops,pro-alcohol,professional,-0.5963055676856792
NA,NA,NA,NA,NA,NA,NA,NA,NA,NA,NA,NA,NA,NA,NA,NA,NA,NA,NA,NA,NA,NA,NA,SDC11140,3,NA,NA,NA,NA,NA,NA,anti_soc,as10.png,portrait,social_media,0.75,0.75,2,435044_study2,2020-11-13_22h51.03.295,alcohol_value_task,2020.1.3,Win32,60,0.447195,NA,NA,0,10,10,10,1,alcohol,alcopops,anti-alcohol,peer-produced,0.10239756578505452
NA,NA,NA,NA,NA,NA,NA,NA,NA,NA,NA,NA,NA,NA,NA,NA,NA,NA,NA,NA,NA,NA,NA,SDC10708,3,NA,NA,NA,NA,NA,NA,pro_prof,pp58.png,portrait,social_media,0.5,0.25,2,435044_study2,2020-11-13_22h51.03.295,alcohol_value_task,2020.1.3,Win32,60,0.72369000000000006,NA,NA,0,11,11,11,1,alcohol,wine,pro-alcohol,professional,0.10239756578505452
NA,NA,NA,NA,NA,NA,NA,NA,NA,NA,NA,NA,NA,NA,NA,NA,NA,NA,NA,NA,NA,NA,NA,SDC10708,4,NA,NA,NA,NA,NA,NA,anti_soc,as23.png,portrait,social_media,0.25,0.25,2,435044_study2,2020-11-13_22h51.03.295,alcohol_value_task,2020.1.3,Win32,60,0.624575,NA,NA,0,12,12,12,1,alcohol,wine,anti-alcohol,peer-produced,0.8011006992557882
NA,NA,NA,NA,NA,NA,NA,NA,NA,NA,NA,NA,NA,NA,NA,NA,NA,NA,NA,NA,NA,NA,NA,SDC11140,2,NA,NA,NA,NA,NA,NA,pro_soc,ps47.png,portrait,website,0.75,0.5,2,435044_study2,2020-11-13_22h51.03.295,alcohol_value_task,2020.1.3,Win32,60,0.84947,NA,NA,0,13,13,13,1,alcohol,alcopops,pro-alcohol,peer-produced,-0.5963055676856792
NA,NA,NA,NA,NA,NA,NA,NA,NA,NA,NA,NA,NA,NA,NA,NA,NA,NA,NA,NA,NA,NA,NA,SDC10708,4,NA,NA,NA,NA,NA,NA,pro_soc,ps16.png,portrait,website,1,1,2,435044_study2,2020-11-13_22h51.03.295,alcohol_value_task,2020.1.3,Win32,60,0.5405,NA,NA,0,14,14,14,1,alcohol,wine,pro-alcohol,peer-produced,0.8011006992557882
NA,NA,NA,NA,NA,NA,NA,NA,NA,NA,NA,NA,NA,NA,NA,NA,NA,NA,NA,NA,NA,NA,NA,SDC11015,2,NA,NA,NA,NA,NA,NA,pro_soc,ps49.png,landscape,social_media,0.75,0.5,2,435044_study2,2020-11-13_22h51.03.295,alcohol_value_task,2020.1.3,Win32,60,0.74979,NA,NA,0,15,15,15,1,alcohol,alcopops,pro-alcohol,peer-produced,-0.5963055676856792
NA,NA,NA,NA,NA,NA,NA,NA,NA,NA,NA,NA,NA,NA,NA,NA,NA,NA,NA,NA,NA,NA,NA,SDC11015,4,NA,NA,NA,NA,NA,NA,anti_soc,as18.png,portrait,website,0.75,0.25,2,435044_study2,2020-11-13_22h51.03.295,alcohol_value_task,2020.1.3,Win32,60,1.098945,NA,NA,0,16,16,16,1,alcohol,alcopops,anti-alcohol,peer-produced,0.8011006992557882
NA,NA,NA,NA,NA,NA,NA,NA,NA,NA,NA,NA,NA,NA,NA,NA,NA,NA,NA,NA,NA,NA,NA,SDC10759,2,NA,NA,NA,NA,NA,NA,anti_soc,as43.png,portrait,social_media,1,0.25,2,435044_study2,2020-11-13_22h51.03.295,alcohol_value_task,2020.1.3,Win32,60,0.663995,NA,NA,0,17,17,17,1,non-alcohol,water,anti-alcohol,peer-produced,-0.5963055676856792
NA,NA,NA,NA,NA,NA,NA,NA,NA,NA,NA,NA,NA,NA,NA,NA,NA,NA,NA,NA,NA,NA,NA,SDC11015,4,NA,NA,NA,NA,NA,NA,pro_prof,pp28.png,portrait,social_media,1,1,2,435044_study2,2020-11-13_22h51.03.295,alcohol_value_task,2020.1.3,Win32,60,0.275555,NA,NA,0,18,18,18,1,alcohol,alcopops,pro-alcohol,professional,0.8011006992557882
NA,NA,NA,NA,NA,NA,NA,NA,NA,NA,NA,NA,NA,NA,NA,NA,NA,NA,NA,NA,NA,NA,NA,SDC10708,3,NA,NA,NA,NA,NA,NA,anti_prof,ap73.png,portrait,website,1,0.25,2,435044_study2,2020-11-13_22h51.03.295,alcohol_value_task,2020.1.3,Win32,60,0.70915,NA,NA,0,19,19,19,1,alcohol,wine,anti-alcohol,professional,0.10239756578505452
NA,NA,NA,NA,NA,NA,NA,NA,NA,NA,NA,NA,NA,NA,NA,NA,NA,NA,NA,NA,NA,NA,NA,SDC11142,2,NA,NA,NA,NA,NA,NA,anti_soc,as47.png,portrait,social_media,0.5,1,2,435044_study2,2020-11-13_22h51.03.295,alcohol_value_task,2020.1.3,Win32,60,0.597375,NA,NA,0,20,20,20,1,alcohol,alcopops,anti-alcohol,peer-produced,-0.5963055676856792
NA,NA,NA,NA,NA,NA,NA,NA,NA,NA,NA,NA,NA,NA,NA,NA,NA,NA,NA,NA,NA,NA,NA,SDC11002,1,NA,NA,NA,NA,NA,NA,anti_soc,as16.png,portrait,website,0.75,1,2,435044_study2,2020-11-13_22h51.03.295,alcohol_value_task,2020.1.3,Win32,60,0.37308,NA,NA,0,21,21,21,1,alcohol,alcopops,anti-alcohol,peer-produced,-1.2950087011564129
NA,NA,NA,NA,NA,NA,NA,NA,NA,NA,NA,NA,NA,NA,NA,NA,NA,NA,NA,NA,NA,NA,NA,SDC11144,2,NA,NA,NA,NA,NA,NA,anti_soc,as11.png,portrait,social_media,0.5,0.25,2,435044_study2,2020-11-13_22h51.03.295,alcohol_value_task,2020.1.3,Win32,60,0.69775,NA,NA,0,22,22,22,1,alcohol,alcopops,anti-alcohol,peer-produced,-0.5963055676856792
NA,NA,NA,NA,NA,NA,NA,NA,NA,NA,NA,NA,NA,NA,NA,NA,NA,NA,NA,NA,NA,NA,NA,SDC10759,4,NA,NA,NA,NA,NA,NA,pro_prof,pp51.png,portrait,social_media,1,0.5,2,435044_study2,2020-11-13_22h51.03.295,alcohol_value_task,2020.1.3,Win32,60,0.56528,NA,NA,0,23,23,23,1,non-alcohol,water,pro-alcohol,professional,0.8011006992557882
NA,NA,NA,NA,NA,NA,NA,NA,NA,NA,NA,NA,NA,NA,NA,NA,NA,NA,NA,NA,NA,NA,NA,SDC11015,1,NA,NA,NA,NA,NA,NA,anti_prof,ap77.png,portrait,social_media,1,1,2,435044_study2,2020-11-13_22h51.03.295,alcohol_value_task,2020.1.3,Win32,60,0.829695,NA,NA,0,24,24,24,1,alcohol,alcopops,anti-alcohol,professional,-1.2950087011564129
NA,NA,NA,NA,NA,NA,NA,NA,NA,NA,NA,NA,NA,NA,NA,NA,NA,NA,NA,NA,NA,NA,NA,SDC11142,5,NA,NA,NA,NA,NA,NA,pro_prof,pp17.png,portrait,website,0.25,0.25,2,435044_study2,2020-11-13_22h51.03.295,alcohol_value_task,2020.1.3,Win32,60,0.37319,NA,NA,0,25,25,25,1,alcohol,alcopops,pro-alcohol,professional,1.499803832726522
NA,NA,NA,NA,NA,NA,NA,NA,NA,NA,NA,NA,NA,NA,NA,NA,NA,NA,NA,NA,NA,NA,NA,SDC10691,2,NA,NA,NA,NA,NA,NA,anti_soc,as48.png,portrait,website,0.75,1,2,435044_study2,2020-11-13_22h51.03.295,alcohol_value_task,2020.1.3,Win32,60,0.43261,NA,NA,0,26,26,26,1,alcohol,wine,anti-alcohol,peer-produced,-0.5963055676856792
NA,NA,NA,NA,NA,NA,NA,NA,NA,NA,NA,NA,NA,NA,NA,NA,NA,NA,NA,NA,NA,NA,NA,SDC11028,4,NA,NA,NA,NA,NA,NA,anti_soc,as28.png,portrait,website,0.5,1,2,435044_study2,2020-11-13_22h51.03.295,alcohol_value_task,2020.1.3,Win32,60,0.886665,NA,NA,0,27,27,27,1,alcohol,alcopops,anti-alcohol,peer-produced,0.8011006992557882
NA,NA,NA,NA,NA,NA,NA,NA,NA,NA,NA,NA,NA,NA,NA,NA,NA,NA,NA,NA,NA,NA,NA,SDC10759,4,NA,NA,NA,NA,NA,NA,anti_prof,ap4.png,landscape,website,0.25,0.5,2,435044_study2,2020-11-13_22h51.03.295,alcohol_value_task,2020.1.3,Win32,60,1.260625,NA,NA,0,28,28,28,1,non-alcohol,water,anti-alcohol,professional,0.8011006992557882
NA,NA,NA,NA,NA,NA,NA,NA,NA,NA,NA,NA,NA,NA,NA,NA,NA,NA,NA,NA,NA,NA,NA,SDC10759,3,NA,NA,NA,NA,NA,NA,pro_soc,ps19.png,portrait,social_media,0.25,0.25,2,435044_study2,2020-11-13_22h51.03.295,alcohol_value_task,2020.1.3,Win32,60,0.362235,NA,NA,0,29,29,29,1,non-alcohol,water,pro-alcohol,peer-produced,0.10239756578505452
NA,NA,NA,NA,NA,NA,NA,NA,NA,NA,NA,NA,NA,NA,NA,NA,NA,NA,NA,NA,NA,NA,NA,SDC11142,4,NA,NA,NA,NA,NA,NA,pro_soc,ps20.png,portrait,website,0.25,0.5,2,435044_study2,2020-11-13_22h51.03.295,alcohol_value_task,2020.1.3,Win32,60,0.801975,NA,NA,0,30,30,30,1,alcohol,alcopops,pro-alcohol,peer-produced,0.8011006992557882
NA,NA,NA,NA,NA,NA,NA,NA,NA,NA,NA,NA,NA,NA,NA,NA,NA,NA,NA,NA,NA,NA,NA,SDC11142,2,NA,NA,NA,NA,NA,NA,anti_prof,ap83.png,portrait,social_media,1,1,2,435044_study2,2020-11-13_22h51.03.295,alcohol_value_task,2020.1.3,Win32,60,0.390805,NA,NA,0,31,31,31,1,alcohol,alcopops,anti-alcohol,professional,-0.5963055676856792
NA,NA,NA,NA,NA,NA,NA,NA,NA,NA,NA,NA,NA,NA,NA,NA,NA,NA,NA,NA,NA,NA,NA,SDC11002,3,NA,NA,NA,NA,NA,NA,pro_prof,pp32.png,portrait,social_media,0.75,1,2,435044_study2,2020-11-13_22h51.03.295,alcohol_value_task,2020.1.3,Win32,60,0.490025,NA,NA,0,32,32,32,1,alcohol,alcopops,pro-alcohol,professional,0.10239756578505452
NA,NA,NA,NA,NA,NA,NA,NA,NA,NA,NA,NA,NA,NA,NA,NA,NA,NA,NA,NA,NA,NA,NA,SDC11002,3,NA,NA,NA,NA,NA,NA,pro_soc,ps57.png,portrait,website,0.75,0.5,2,435044_study2,2020-11-13_22h51.03.295,alcohol_value_task,2020.1.3,Win32,60,0.329315,NA,NA,0,33,33,33,1,alcohol,alcopops,pro-alcohol,peer-produced,0.10239756578505452
NA,NA,NA,NA,NA,NA,NA,NA,NA,NA,NA,NA,NA,NA,NA,NA,NA,NA,NA,NA,NA,NA,NA,SDC10817,3,NA,NA,NA,NA,NA,NA,anti_soc,as22.png,portrait,social_media,0.5,0.25,2,435044_study2,2020-11-13_22h51.03.295,alcohol_value_task,2020.1.3,Win32,60,1.167925,NA,NA,0,34,34,34,1,non-alcohol,soft_drinks,anti-alcohol,peer-produced,0.10239756578505452
NA,NA,NA,NA,NA,NA,NA,NA,NA,NA,NA,NA,NA,NA,NA,NA,NA,NA,NA,NA,NA,NA,NA,SDC11144,5,NA,NA,NA,NA,NA,NA,pro_soc,ps25.png,portrait,social_media,1,0.75,2,435044_study2,2020-11-13_22h51.03.295,alcohol_value_task,2020.1.3,Win32,60,0.275285,NA,NA,0,35,35,35,1,alcohol,alcopops,pro-alcohol,peer-produced,1.499803832726522
NA,NA,NA,NA,NA,NA,NA,NA,NA,NA,NA,NA,NA,NA,NA,NA,NA,NA,NA,NA,NA,NA,NA,SDC10691,4,NA,NA,NA,NA,NA,NA,pro_soc,ps15.png,portrait,social_media,1,1,2,435044_study2,2020-11-13_22h51.03.295,alcohol_value_task,2020.1.3,Win32,60,0.49168,NA,NA,0,36,36,36,1,alcohol,wine,pro-alcohol,peer-produced,0.8011006992557882
NA,NA,NA,NA,NA,NA,NA,NA,NA,NA,NA,NA,NA,NA,NA,NA,NA,NA,NA,NA,NA,NA,NA,SDC11002,4,NA,NA,NA,NA,NA,NA,anti_prof,ap9.png,landscape,website,0.5,0.5,2,435044_study2,2020-11-13_22h51.03.295,alcohol_value_task,2020.1.3,Win32,60,0.81727,NA,NA,0,37,37,37,1,alcohol,alcopops,anti-alcohol,professional,0.8011006992557882
NA,NA,NA,NA,NA,NA,NA,NA,NA,NA,NA,NA,NA,NA,NA,NA,NA,NA,NA,NA,NA,NA,NA,SDC12112,3,NA,NA,NA,NA,NA,NA,anti_soc,as4.png,portrait,social_media,1,0.75,2,435044_study2,2020-11-13_22h51.03.295,alcohol_value_task,2020.1.3,Win32,60,0.598365,NA,NA,0,38,38,38,1,alcohol,wine,anti-alcohol,peer-produced,0.10239756578505452
NA,NA,NA,NA,NA,NA,NA,NA,NA,NA,NA,NA,NA,NA,NA,NA,NA,NA,NA,NA,NA,NA,NA,SDC10827,4,NA,NA,NA,NA,NA,NA,anti_soc,as14.png,portrait,social_media,1,0.75,2,435044_study2,2020-11-13_22h51.03.295,alcohol_value_task,2020.1.3,Win32,60,0.80769,NA,NA,0,39,39,39,1,non-alcohol,soft_drinks,anti-alcohol,peer-produced,0.8011006992557882
NA,NA,NA,NA,NA,NA,NA,NA,NA,NA,NA,NA,NA,NA,NA,NA,NA,NA,NA,NA,NA,NA,NA,SDC11144,3,NA,NA,NA,NA,NA,NA,anti_prof,ap52.png,portrait,website,0.75,0.75,2,435044_study2,2020-11-13_22h51.03.295,alcohol_value_task,2020.1.3,Win32,60,0.55156,NA,NA,0,40,40,40,1,alcohol,alcopops,anti-alcohol,professional,0.10239756578505452
NA,NA,NA,NA,NA,NA,NA,NA,NA,NA,NA,NA,NA,NA,NA,NA,NA,NA,NA,NA,NA,NA,NA,SDC11144,3,NA,NA,NA,NA,NA,NA,pro_prof,pp22.png,portrait,social_media,0.75,0.25,2,435044_study2,2020-11-13_22h51.03.295,alcohol_value_task,2020.1.3,Win32,60,0.253725,NA,NA,0,41,41,41,1,alcohol,alcopops,pro-alcohol,professional,0.10239756578505452
NA,NA,NA,NA,NA,NA,NA,NA,NA,NA,NA,NA,NA,NA,NA,NA,NA,NA,NA,NA,NA,NA,NA,SDC10691,5,NA,NA,NA,NA,NA,NA,pro_prof,pp40.png,portrait,website,0.75,0.25,2,435044_study2,2020-11-13_22h51.03.295,alcohol_value_task,2020.1.3,Win32,60,0.314125,NA,NA,0,42,42,42,1,alcohol,wine,pro-alcohol,professional,1.499803832726522
NA,NA,NA,NA,NA,NA,NA,NA,NA,NA,NA,NA,NA,NA,NA,NA,NA,NA,NA,NA,NA,NA,NA,SDC11028,3,NA,NA,NA,NA,NA,NA,pro_soc,ps51.png,portrait,website,0.5,0.75,2,435044_study2,2020-11-13_22h51.03.295,alcohol_value_task,2020.1.3,Win32,60,0.347965,NA,NA,0,43,43,43,1,alcohol,alcopops,pro-alcohol,peer-produced,0.10239756578505452
9,space,1.178545,2,7.3091,2,3.330805,1,4.670535,2,4.33184,2,6.846165,space,14.821265,space,12.165815,space,12.131635,space,9.651825,space,5.587065,SDC12112,5,NA,0,0,0,0,1,pro_soc,ps52.png,landscape,website,0.5,0.25,1,435097_study2,2020-11-13_20h09.20.527,alcohol_value_task,2020.1.3,Win32,60,1.66824,NA,NA,NA,NA,NA,NA,NA,alcohol,wine,pro-alcohol,peer-produced,1.499803832726522
NA,NA,NA,NA,NA,NA,NA,NA,NA,NA,NA,NA,NA,NA,NA,NA,NA,NA,NA,NA,NA,NA,NA,SDC10691,3,NA,0,1,1,1,1,pro_soc,ps33.png,landscape,website,1,0.25,1,435097_study2,2020-11-13_20h09.20.527,alcohol_value_task,2020.1.3,Win32,60,1.35398,NA,NA,NA,NA,NA,NA,NA,alcohol,wine,pro-alcohol,peer-produced,0.10239756578505452
NA,NA,NA,NA,NA,NA,NA,NA,NA,NA,NA,NA,NA,NA,NA,NA,NA,NA,NA,NA,NA,NA,NA,SDC12115,2,NA,0,2,2,2,1,pro_soc,ps29.png,portrait,website,1,0.75,1,435097_study2,2020-11-13_20h09.20.527,alcohol_value_task,2020.1.3,Win32,60,1.586295,NA,NA,NA,NA,NA,NA,NA,alcohol,spirits,pro-alcohol,peer-produced,-0.5963055676856792
NA,NA,NA,NA,NA,NA,NA,NA,NA,NA,NA,NA,NA,NA,NA,NA,NA,NA,NA,NA,NA,NA,NA,SDC12112,4,NA,0,3,3,3,1,anti_soc,as47.png,portrait,social_media,0.25,0.25,1,435097_study2,2020-11-13_20h09.20.527,alcohol_value_task,2020.1.3,Win32,60,1.84373,NA,NA,NA,NA,NA,NA,NA,alcohol,wine,anti-alcohol,peer-produced,0.8011006992557882
NA,NA,NA,NA,NA,NA,NA,NA,NA,NA,NA,NA,NA,NA,NA,NA,NA,NA,NA,NA,NA,NA,NA,SDC11125,1,NA,0,4,4,4,1,pro_soc,ps35.png,portrait,website,0.25,0.25,1,435097_study2,2020-11-13_20h09.20.527,alcohol_value_task,2020.1.3,Win32,60,0.752425,NA,NA,NA,NA,NA,NA,NA,alcohol,wine,pro-alcohol,peer-produced,-1.2950087011564129
NA,NA,NA,NA,NA,NA,NA,NA,NA,NA,NA,NA,NA,NA,NA,NA,NA,NA,NA,NA,NA,NA,NA,SDC12112,NA,4,0,5,5,5,1,pro_prof,pp13.png,portrait,website,0.25,0.75,1,435097_study2,2020-11-13_20h09.20.527,alcohol_value_task,2020.1.3,Win32,60,NA,NA,NA,NA,NA,NA,NA,NA,alcohol,wine,pro-alcohol,professional,NA
NA,NA,NA,NA,NA,NA,NA,NA,NA,NA,NA,NA,NA,NA,NA,NA,NA,NA,NA,NA,NA,NA,NA,SDC10691,3,NA,0,6,6,6,1,pro_prof,pp40.png,portrait,social_media,0.75,0.25,1,435097_study2,2020-11-13_20h09.20.527,alcohol_value_task,2020.1.3,Win32,60,0.705445,NA,NA,NA,NA,NA,NA,NA,alcohol,wine,pro-alcohol,professional,0.10239756578505452
NA,NA,NA,NA,NA,NA,NA,NA,NA,NA,NA,NA,NA,NA,NA,NA,NA,NA,NA,NA,NA,NA,NA,SDC10744,5,NA,0,7,7,7,1,pro_soc,ps14.png,portrait,social_media,0.25,0.5,1,435097_study2,2020-11-13_20h09.20.527,alcohol_value_task,2020.1.3,Win32,60,0.616965,NA,NA,NA,NA,NA,NA,NA,non-alcohol,water,pro-alcohol,peer-produced,1.499803832726522
NA,NA,NA,NA,NA,NA,NA,NA,NA,NA,NA,NA,NA,NA,NA,NA,NA,NA,NA,NA,NA,NA,NA,SDC10691,3,NA,0,8,8,8,1,anti_soc,as8.png,portrait,social_media,0.75,0.25,1,435097_study2,2020-11-13_20h09.20.527,alcohol_value_task,2020.1.3,Win32,60,1.3542,NA,NA,NA,NA,NA,NA,NA,alcohol,wine,anti-alcohol,peer-produced,0.10239756578505452
NA,NA,NA,NA,NA,NA,NA,NA,NA,NA,NA,NA,NA,NA,NA,NA,NA,NA,NA,NA,NA,NA,NA,SDC12112,1,NA,0,9,9,9,1,anti_prof,ap82.png,landscape,social_media,0.75,0.75,1,435097_study2,2020-11-13_20h09.20.527,alcohol_value_task,2020.1.3,Win32,60,1.269255,NA,NA,NA,NA,NA,NA,NA,alcohol,wine,anti-alcohol,professional,-1.2950087011564129
NA,NA,NA,NA,NA,NA,NA,NA,NA,NA,NA,NA,NA,NA,NA,NA,NA,NA,NA,NA,NA,NA,NA,SDC12115,1,NA,0,10,10,10,1,anti_soc,as25.png,portrait,social_media,0.5,0.5,1,435097_study2,2020-11-13_20h09.20.527,alcohol_value_task,2020.1.3,Win32,60,0.509335,NA,NA,NA,NA,NA,NA,NA,alcohol,spirits,anti-alcohol,peer-produced,-1.2950087011564129
NA,NA,NA,NA,NA,NA,NA,NA,NA,NA,NA,NA,NA,NA,NA,NA,NA,NA,NA,NA,NA,NA,NA,SDC12115,1,NA,0,11,11,11,1,pro_prof,pp42.png,portrait,website,0.75,1,1,435097_study2,2020-11-13_20h09.20.527,alcohol_value_task,2020.1.3,Win32,60,0.481105,NA,NA,NA,NA,NA,NA,NA,alcohol,spirits,pro-alcohol,professional,-1.2950087011564129
NA,NA,NA,NA,NA,NA,NA,NA,NA,NA,NA,NA,NA,NA,NA,NA,NA,NA,NA,NA,NA,NA,NA,SDC10990,3,NA,0,12,12,12,1,pro_soc,ps25.png,portrait,social_media,1,0.25,1,435097_study2,2020-11-13_20h09.20.527,alcohol_value_task,2020.1.3,Win32,60,1.09507,NA,NA,NA,NA,NA,NA,NA,non-alcohol,miscellaneous,pro-alcohol,peer-produced,0.10239756578505452
NA,NA,NA,NA,NA,NA,NA,NA,NA,NA,NA,NA,NA,NA,NA,NA,NA,NA,NA,NA,NA,NA,NA,SDC11125,1,NA,0,13,13,13,1,anti_soc,as52.png,portrait,social_media,0.75,0.5,1,435097_study2,2020-11-13_20h09.20.527,alcohol_value_task,2020.1.3,Win32,60,0.359975,NA,NA,NA,NA,NA,NA,NA,alcohol,wine,anti-alcohol,peer-produced,-1.2950087011564129
NA,NA,NA,NA,NA,NA,NA,NA,NA,NA,NA,NA,NA,NA,NA,NA,NA,NA,NA,NA,NA,NA,NA,SDC10744,5,NA,0,14,14,14,1,anti_soc,as11.png,portrait,website,0.25,0.5,1,435097_study2,2020-11-13_20h09.20.527,alcohol_value_task,2020.1.3,Win32,60,0.33375,NA,NA,NA,NA,NA,NA,NA,non-alcohol,water,anti-alcohol,peer-produced,1.499803832726522
NA,NA,NA,NA,NA,NA,NA,NA,NA,NA,NA,NA,NA,NA,NA,NA,NA,NA,NA,NA,NA,NA,NA,SDC10691,3,NA,0,15,15,15,1,anti_prof,ap34.png,landscape,social_media,1,1,1,435097_study2,2020-11-13_20h09.20.527,alcohol_value_task,2020.1.3,Win32,60,0.523065,NA,NA,NA,NA,NA,NA,NA,alcohol,wine,anti-alcohol,professional,0.10239756578505452
NA,NA,NA,NA,NA,NA,NA,NA,NA,NA,NA,NA,NA,NA,NA,NA,NA,NA,NA,NA,NA,NA,NA,SDC10990,3,NA,0,16,16,16,1,anti_soc,as22.png,portrait,social_media,0.75,1,1,435097_study2,2020-11-13_20h09.20.527,alcohol_value_task,2020.1.3,Win32,60,0.73084,NA,NA,NA,NA,NA,NA,NA,non-alcohol,miscellaneous,anti-alcohol,peer-produced,0.10239756578505452
NA,NA,NA,NA,NA,NA,NA,NA,NA,NA,NA,NA,NA,NA,NA,NA,NA,NA,NA,NA,NA,NA,NA,SDC10989,3,NA,0,17,17,17,1,pro_soc,ps16.png,portrait,social_media,0.25,0.5,1,435097_study2,2020-11-13_20h09.20.527,alcohol_value_task,2020.1.3,Win32,60,1.0265,NA,NA,NA,NA,NA,NA,NA,non-alcohol,miscellaneous,pro-alcohol,peer-produced,0.10239756578505452
NA,NA,NA,NA,NA,NA,NA,NA,NA,NA,NA,NA,NA,NA,NA,NA,NA,NA,NA,NA,NA,NA,NA,SDC12117,1,NA,0,18,18,18,1,pro_soc,ps58.png,portrait,website,0.5,1,1,435097_study2,2020-11-13_20h09.20.527,alcohol_value_task,2020.1.3,Win32,60,0.454005,NA,NA,NA,NA,NA,NA,NA,alcohol,spirits,pro-alcohol,peer-produced,-1.2950087011564129
NA,NA,NA,NA,NA,NA,NA,NA,NA,NA,NA,NA,NA,NA,NA,NA,NA,NA,NA,NA,NA,NA,NA,SDC11125,1,NA,0,19,19,19,1,pro_prof,pp26.png,portrait,social_media,0.5,1,1,435097_study2,2020-11-13_20h09.20.527,alcohol_value_task,2020.1.3,Win32,60,0.37343,NA,NA,NA,NA,NA,NA,NA,alcohol,wine,pro-alcohol,professional,-1.2950087011564129
NA,NA,NA,NA,NA,NA,NA,NA,NA,NA,NA,NA,NA,NA,NA,NA,NA,NA,NA,NA,NA,NA,NA,SDC12115,1,NA,0,20,20,20,1,anti_prof,ap52.png,portrait,social_media,0.75,1,1,435097_study2,2020-11-13_20h09.20.527,alcohol_value_task,2020.1.3,Win32,60,0.435355,NA,NA,NA,NA,NA,NA,NA,alcohol,spirits,anti-alcohol,professional,-1.2950087011564129
NA,NA,NA,NA,NA,NA,NA,NA,NA,NA,NA,NA,NA,NA,NA,NA,NA,NA,NA,NA,NA,NA,NA,SDC10989,4,NA,0,21,21,21,1,anti_soc,as4.png,portrait,social_media,0.75,0.75,1,435097_study2,2020-11-13_20h09.20.527,alcohol_value_task,2020.1.3,Win32,60,0.401525,NA,NA,NA,NA,NA,NA,NA,non-alcohol,miscellaneous,anti-alcohol,peer-produced,0.8011006992557882
NA,NA,NA,NA,NA,NA,NA,NA,NA,NA,NA,NA,NA,NA,NA,NA,NA,NA,NA,NA,NA,NA,NA,SDC10744,5,NA,0,22,22,22,1,pro_prof,pp51.png,portrait,social_media,0.25,0.25,1,435097_study2,2020-11-13_20h09.20.527,alcohol_value_task,2020.1.3,Win32,60,0.570935,NA,NA,NA,NA,NA,NA,NA,non-alcohol,water,pro-alcohol,professional,1.499803832726522
NA,NA,NA,NA,NA,NA,NA,NA,NA,NA,NA,NA,NA,NA,NA,NA,NA,NA,NA,NA,NA,NA,NA,SDC11127,2,NA,0,23,23,23,1,pro_soc,ps42.png,portrait,website,1,1,1,435097_study2,2020-11-13_20h09.20.527,alcohol_value_task,2020.1.3,Win32,60,0.393645,NA,NA,NA,NA,NA,NA,NA,alcohol,wine,pro-alcohol,peer-produced,-0.5963055676856792
NA,NA,NA,NA,NA,NA,NA,NA,NA,NA,NA,NA,NA,NA,NA,NA,NA,NA,NA,NA,NA,NA,NA,SDC10990,3,NA,0,24,24,24,1,pro_prof,pp27.png,portrait,website,0.25,0.5,1,435097_study2,2020-11-13_20h09.20.527,alcohol_value_task,2020.1.3,Win32,60,0.90023,NA,NA,NA,NA,NA,NA,NA,non-alcohol,miscellaneous,pro-alcohol,professional,0.10239756578505452
NA,NA,NA,NA,NA,NA,NA,NA,NA,NA,NA,NA,NA,NA,NA,NA,NA,NA,NA,NA,NA,NA,NA,SDC12117,1,NA,0,25,25,25,1,anti_soc,as18.png,portrait,social_media,0.25,1,1,435097_study2,2020-11-13_20h09.20.527,alcohol_value_task,2020.1.3,Win32,60,0.600305,NA,NA,NA,NA,NA,NA,NA,alcohol,spirits,anti-alcohol,peer-produced,-1.2950087011564129
NA,NA,NA,NA,NA,NA,NA,NA,NA,NA,NA,NA,NA,NA,NA,NA,NA,NA,NA,NA,NA,NA,NA,SDC10708,4,NA,0,26,26,26,1,pro_soc,ps21.png,landscape,social_media,0.5,0.75,1,435097_study2,2020-11-13_20h09.20.527,alcohol_value_task,2020.1.3,Win32,60,0.500445,NA,NA,NA,NA,NA,NA,NA,alcohol,wine,pro-alcohol,peer-produced,0.8011006992557882
NA,NA,NA,NA,NA,NA,NA,NA,NA,NA,NA,NA,NA,NA,NA,NA,NA,NA,NA,NA,NA,NA,NA,SDC11110,1,NA,0,27,27,27,1,pro_soc,ps20.png,portrait,website,0.5,0.25,1,435097_study2,2020-11-13_20h09.20.527,alcohol_value_task,2020.1.3,Win32,60,0.44572,NA,NA,NA,NA,NA,NA,NA,alcohol,spirits,pro-alcohol,peer-produced,-1.2950087011564129
NA,NA,NA,NA,NA,NA,NA,NA,NA,NA,NA,NA,NA,NA,NA,NA,NA,NA,NA,NA,NA,NA,NA,SDC11125,1,NA,0,28,28,28,1,anti_prof,ap19.png,portrait,website,0.5,0.5,1,435097_study2,2020-11-13_20h09.20.527,alcohol_value_task,2020.1.3,Win32,60,0.33458,NA,NA,NA,NA,NA,NA,NA,alcohol,wine,anti-alcohol,professional,-1.2950087011564129
NA,NA,NA,NA,NA,NA,NA,NA,NA,NA,NA,NA,NA,NA,NA,NA,NA,NA,NA,NA,NA,NA,NA,SDC11127,1,NA,0,29,29,29,1,anti_soc,as14.png,portrait,website,1,1,1,435097_study2,2020-11-13_20h09.20.527,alcohol_value_task,2020.1.3,Win32,60,0.45821,NA,NA,NA,NA,NA,NA,NA,alcohol,wine,anti-alcohol,peer-produced,-1.2950087011564129
NA,NA,NA,NA,NA,NA,NA,NA,NA,NA,NA,NA,NA,NA,NA,NA,NA,NA,NA,NA,NA,NA,NA,SDC10989,3,NA,0,30,30,30,1,pro_prof,pp57.png,portrait,website,1,0.25,1,435097_study2,2020-11-13_20h09.20.527,alcohol_value_task,2020.1.3,Win32,60,0.450415,NA,NA,NA,NA,NA,NA,NA,non-alcohol,miscellaneous,pro-alcohol,professional,0.10239756578505452
NA,NA,NA,NA,NA,NA,NA,NA,NA,NA,NA,NA,NA,NA,NA,NA,NA,NA,NA,NA,NA,NA,NA,SDC10744,5,NA,0,31,31,31,1,anti_prof,ap71.png,landscape,social_media,0.5,0.25,1,435097_study2,2020-11-13_20h09.20.527,alcohol_value_task,2020.1.3,Win32,60,0.62718,NA,NA,NA,NA,NA,NA,NA,non-alcohol,water,anti-alcohol,professional,1.499803832726522
NA,NA,NA,NA,NA,NA,NA,NA,NA,NA,NA,NA,NA,NA,NA,NA,NA,NA,NA,NA,NA,NA,NA,SDC12117,1,NA,0,32,32,32,1,pro_prof,pp53.png,portrait,website,0.25,1,1,435097_study2,2020-11-13_20h09.20.527,alcohol_value_task,2020.1.3,Win32,60,0.300935,NA,NA,NA,NA,NA,NA,NA,alcohol,spirits,pro-alcohol,professional,-1.2950087011564129
NA,NA,NA,NA,NA,NA,NA,NA,NA,NA,NA,NA,NA,NA,NA,NA,NA,NA,NA,NA,NA,NA,NA,SDC10990,5,NA,0,33,33,33,1,anti_prof,ap67.png,portrait,social_media,0.5,0.25,1,435097_study2,2020-11-13_20h09.20.527,alcohol_value_task,2020.1.3,Win32,60,0.77902,NA,NA,NA,NA,NA,NA,NA,non-alcohol,miscellaneous,anti-alcohol,professional,1.499803832726522
NA,NA,NA,NA,NA,NA,NA,NA,NA,NA,NA,NA,NA,NA,NA,NA,NA,NA,NA,NA,NA,NA,NA,SDC11127,1,NA,0,34,34,34,1,pro_prof,pp44.png,portrait,website,0.25,0.75,1,435097_study2,2020-11-13_20h09.20.527,alcohol_value_task,2020.1.3,Win32,60,0.337055,NA,NA,NA,NA,NA,NA,NA,alcohol,wine,pro-alcohol,professional,-1.2950087011564129
NA,NA,NA,NA,NA,NA,NA,NA,NA,NA,NA,NA,NA,NA,NA,NA,NA,NA,NA,NA,NA,NA,NA,SDC10989,3,NA,0,35,35,35,1,anti_prof,ap77.png,portrait,social_media,0.75,0.25,1,435097_study2,2020-11-13_20h09.20.527,alcohol_value_task,2020.1.3,Win32,60,0.733845,NA,NA,NA,NA,NA,NA,NA,non-alcohol,miscellaneous,anti-alcohol,professional,0.10239756578505452
NA,NA,NA,NA,NA,NA,NA,NA,NA,NA,NA,NA,NA,NA,NA,NA,NA,NA,NA,NA,NA,NA,NA,SDC10708,4,NA,0,36,36,36,1,pro_prof,pp17.png,portrait,website,1,1,1,435097_study2,2020-11-13_20h09.20.527,alcohol_value_task,2020.1.3,Win32,60,0.659245,NA,NA,NA,NA,NA,NA,NA,alcohol,wine,pro-alcohol,professional,0.8011006992557882
NA,NA,NA,NA,NA,NA,NA,NA,NA,NA,NA,NA,NA,NA,NA,NA,NA,NA,NA,NA,NA,NA,NA,SDC12117,2,NA,0,37,37,37,1,anti_prof,ap39.png,portrait,website,0.75,0.5,1,435097_study2,2020-11-13_20h09.20.527,alcohol_value_task,2020.1.3,Win32,60,0.754995,NA,NA,NA,NA,NA,NA,NA,alcohol,spirits,anti-alcohol,professional,-0.5963055676856792
NA,NA,NA,NA,NA,NA,NA,NA,NA,NA,NA,NA,NA,NA,NA,NA,NA,NA,NA,NA,NA,NA,NA,SDC11110,1,NA,0,38,38,38,1,pro_prof,pp32.png,portrait,website,0.5,0.75,1,435097_study2,2020-11-13_20h09.20.527,alcohol_value_task,2020.1.3,Win32,60,0.335045,NA,NA,NA,NA,NA,NA,NA,alcohol,spirits,pro-alcohol,professional,-1.2950087011564129
NA,NA,NA,NA,NA,NA,NA,NA,NA,NA,NA,NA,NA,NA,NA,NA,NA,NA,NA,NA,NA,NA,NA,SDC11128,1,NA,0,39,39,39,1,pro_prof,pp22.png,portrait,social_media,1,0.5,1,435097_study2,2020-11-13_20h09.20.527,alcohol_value_task,2020.1.3,Win32,60,0.539555,NA,NA,NA,NA,NA,NA,NA,alcohol,wine,pro-alcohol,professional,-1.2950087011564129
NA,NA,NA,NA,NA,NA,NA,NA,NA,NA,NA,NA,NA,NA,NA,NA,NA,NA,NA,NA,NA,NA,NA,SDC11128,1,NA,0,40,40,40,1,pro_soc,ps28.png,landscape,website,0.75,0.75,1,435097_study2,2020-11-13_20h09.20.527,alcohol_value_task,2020.1.3,Win32,60,0.93392,NA,NA,NA,NA,NA,NA,NA,alcohol,wine,pro-alcohol,peer-produced,-1.2950087011564129
NA,NA,NA,NA,NA,NA,NA,NA,NA,NA,NA,NA,NA,NA,NA,NA,NA,NA,NA,NA,NA,NA,NA,SDC11127,1,NA,0,41,41,41,1,anti_prof,ap49.png,landscape,social_media,0.25,0.75,1,435097_study2,2020-11-13_20h09.20.527,alcohol_value_task,2020.1.3,Win32,60,0.35167,NA,NA,NA,NA,NA,NA,NA,alcohol,wine,anti-alcohol,professional,-1.2950087011564129
NA,NA,NA,NA,NA,NA,NA,NA,NA,NA,NA,NA,NA,NA,NA,NA,NA,NA,NA,NA,NA,NA,NA,SDC10708,4,NA,0,42,42,42,1,anti_soc,as28.png,portrait,website,0.25,0.75,1,435097_study2,2020-11-13_20h09.20.527,alcohol_value_task,2020.1.3,Win32,60,0.446085,NA,NA,NA,NA,NA,NA,NA,alcohol,wine,anti-alcohol,peer-produced,0.8011006992557882
NA,NA,NA,NA,NA,NA,NA,NA,NA,NA,NA,NA,NA,NA,NA,NA,NA,NA,NA,NA,NA,NA,NA,SDC11110,1,NA,0,43,43,43,1,anti_soc,as16.png,portrait,social_media,1,0.5,1,435097_study2,2020-11-13_20h09.20.527,alcohol_value_task,2020.1.3,Win32,60,0.287,NA,NA,NA,NA,NA,NA,NA,alcohol,spirits,anti-alcohol,peer-produced,-1.2950087011564129
NA,NA,NA,NA,NA,NA,NA,NA,NA,NA,NA,NA,NA,NA,NA,NA,NA,NA,NA,NA,NA,NA,NA,SDC12112,5,NA,NA,NA,NA,NA,NA,anti_soc,as58.png,portrait,website,1,1,2,435097_study2,2020-11-13_20h09.20.527,alcohol_value_task,2020.1.3,Win32,60,1.25762,space,31.4056,0,0,0,0,1,alcohol,wine,anti-alcohol,peer-produced,1.499803832726522
NA,NA,NA,NA,NA,NA,NA,NA,NA,NA,NA,NA,NA,NA,NA,NA,NA,NA,NA,NA,NA,NA,NA,SDC10691,4,NA,NA,NA,NA,NA,NA,anti_soc,as46.png,portrait,website,1,0.75,2,435097_study2,2020-11-13_20h09.20.527,alcohol_value_task,2020.1.3,Win32,60,0.368055,NA,NA,0,1,1,1,1,alcohol,wine,anti-alcohol,peer-produced,0.8011006992557882
NA,NA,NA,NA,NA,NA,NA,NA,NA,NA,NA,NA,NA,NA,NA,NA,NA,NA,NA,NA,NA,NA,NA,SDC12115,1,NA,NA,NA,NA,NA,NA,anti_soc,as56.png,portrait,social_media,0.25,1,2,435097_study2,2020-11-13_20h09.20.527,alcohol_value_task,2020.1.3,Win32,60,0.329315,NA,NA,0,2,2,2,1,alcohol,spirits,anti-alcohol,peer-produced,-1.2950087011564129
NA,NA,NA,NA,NA,NA,NA,NA,NA,NA,NA,NA,NA,NA,NA,NA,NA,NA,NA,NA,NA,NA,NA,SDC12112,4,NA,NA,NA,NA,NA,NA,anti_prof,ap73.png,portrait,website,0.25,0.5,2,435097_study2,2020-11-13_20h09.20.527,alcohol_value_task,2020.1.3,Win32,60,0.47849,NA,NA,0,3,3,3,1,alcohol,wine,anti-alcohol,professional,0.8011006992557882
NA,NA,NA,NA,NA,NA,NA,NA,NA,NA,NA,NA,NA,NA,NA,NA,NA,NA,NA,NA,NA,NA,NA,SDC11125,1,NA,NA,NA,NA,NA,NA,anti_soc,as29.png,portrait,social_media,0.5,0.75,2,435097_study2,2020-11-13_20h09.20.527,alcohol_value_task,2020.1.3,Win32,60,0.334905,NA,NA,0,4,4,4,1,alcohol,wine,anti-alcohol,peer-produced,-1.2950087011564129
NA,NA,NA,NA,NA,NA,NA,NA,NA,NA,NA,NA,NA,NA,NA,NA,NA,NA,NA,NA,NA,NA,NA,SDC10691,3,NA,NA,NA,NA,NA,NA,anti_prof,ap69.png,portrait,social_media,1,0.5,2,435097_study2,2020-11-13_20h09.20.527,alcohol_value_task,2020.1.3,Win32,60,1.449935,NA,NA,0,5,5,5,1,alcohol,wine,anti-alcohol,professional,0.10239756578505452
NA,NA,NA,NA,NA,NA,NA,NA,NA,NA,NA,NA,NA,NA,NA,NA,NA,NA,NA,NA,NA,NA,NA,SDC12112,3,NA,NA,NA,NA,NA,NA,pro_soc,ps57.png,portrait,website,0.5,1,2,435097_study2,2020-11-13_20h09.20.527,alcohol_value_task,2020.1.3,Win32,60,0.44298,NA,NA,0,6,6,6,1,alcohol,wine,pro-alcohol,peer-produced,0.10239756578505452
NA,NA,NA,NA,NA,NA,NA,NA,NA,NA,NA,NA,NA,NA,NA,NA,NA,NA,NA,NA,NA,NA,NA,SDC12112,4,NA,NA,NA,NA,NA,NA,pro_prof,pp12.png,portrait,website,0.25,0.5,2,435097_study2,2020-11-13_20h09.20.527,alcohol_value_task,2020.1.3,Win32,60,1.633125,NA,NA,0,7,7,7,1,alcohol,wine,pro-alcohol,professional,0.8011006992557882
NA,NA,NA,NA,NA,NA,NA,NA,NA,NA,NA,NA,NA,NA,NA,NA,NA,NA,NA,NA,NA,NA,NA,SDC10691,4,NA,NA,NA,NA,NA,NA,pro_prof,pp15.png,portrait,website,0.5,0.25,2,435097_study2,2020-11-13_20h09.20.527,alcohol_value_task,2020.1.3,Win32,60,0.933675,NA,NA,0,8,8,8,1,alcohol,wine,pro-alcohol,professional,0.8011006992557882
NA,NA,NA,NA,NA,NA,NA,NA,NA,NA,NA,NA,NA,NA,NA,NA,NA,NA,NA,NA,NA,NA,NA,SDC10744,5,NA,NA,NA,NA,NA,NA,anti_soc,as44.png,portrait,website,0.75,0.75,2,435097_study2,2020-11-13_20h09.20.527,alcohol_value_task,2020.1.3,Win32,60,0.334285,NA,NA,0,9,9,9,1,non-alcohol,water,anti-alcohol,peer-produced,1.499803832726522
NA,NA,NA,NA,NA,NA,NA,NA,NA,NA,NA,NA,NA,NA,NA,NA,NA,NA,NA,NA,NA,NA,NA,SDC10691,NA,3,NA,NA,NA,NA,NA,pro_soc,ps51.png,portrait,social_media,1,0.5,2,435097_study2,2020-11-13_20h09.20.527,alcohol_value_task,2020.1.3,Win32,60,NA,NA,NA,0,10,10,10,1,alcohol,wine,pro-alcohol,peer-produced,NA
NA,NA,NA,NA,NA,NA,NA,NA,NA,NA,NA,NA,NA,NA,NA,NA,NA,NA,NA,NA,NA,NA,NA,SDC12115,1,NA,NA,NA,NA,NA,NA,pro_soc,ps47.png,portrait,social_media,1,0.75,2,435097_study2,2020-11-13_20h09.20.527,alcohol_value_task,2020.1.3,Win32,60,0.312315,NA,NA,0,11,11,11,1,alcohol,spirits,pro-alcohol,peer-produced,-1.2950087011564129
NA,NA,NA,NA,NA,NA,NA,NA,NA,NA,NA,NA,NA,NA,NA,NA,NA,NA,NA,NA,NA,NA,NA,SDC12115,1,NA,NA,NA,NA,NA,NA,anti_prof,ap16.png,portrait,social_media,1,0.25,2,435097_study2,2020-11-13_20h09.20.527,alcohol_value_task,2020.1.3,Win32,60,0.325615,NA,NA,0,12,12,12,1,alcohol,spirits,anti-alcohol,professional,-1.2950087011564129
NA,NA,NA,NA,NA,NA,NA,NA,NA,NA,NA,NA,NA,NA,NA,NA,NA,NA,NA,NA,NA,NA,NA,SDC12115,1,NA,NA,NA,NA,NA,NA,pro_prof,pp14.png,portrait,social_media,1,1,2,435097_study2,2020-11-13_20h09.20.527,alcohol_value_task,2020.1.3,Win32,60,0.733695,NA,NA,0,13,13,13,1,alcohol,spirits,pro-alcohol,professional,-1.2950087011564129
NA,NA,NA,NA,NA,NA,NA,NA,NA,NA,NA,NA,NA,NA,NA,NA,NA,NA,NA,NA,NA,NA,NA,SDC11125,1,NA,NA,NA,NA,NA,NA,anti_prof,ap54.png,portrait,social_media,0.25,0.25,2,435097_study2,2020-11-13_20h09.20.527,alcohol_value_task,2020.1.3,Win32,60,0.30013,NA,NA,0,14,14,14,1,alcohol,wine,anti-alcohol,professional,-1.2950087011564129
NA,NA,NA,NA,NA,NA,NA,NA,NA,NA,NA,NA,NA,NA,NA,NA,NA,NA,NA,NA,NA,NA,NA,SDC10990,3,NA,NA,NA,NA,NA,NA,anti_soc,as43.png,portrait,social_media,0.75,1,2,435097_study2,2020-11-13_20h09.20.527,alcohol_value_task,2020.1.3,Win32,60,0.39394,NA,NA,0,15,15,15,1,non-alcohol,miscellaneous,anti-alcohol,peer-produced,0.10239756578505452
NA,NA,NA,NA,NA,NA,NA,NA,NA,NA,NA,NA,NA,NA,NA,NA,NA,NA,NA,NA,NA,NA,NA,SDC11125,1,NA,NA,NA,NA,NA,NA,pro_soc,ps22.png,landscape,website,0.5,0.5,2,435097_study2,2020-11-13_20h09.20.527,alcohol_value_task,2020.1.3,Win32,60,0.50121,NA,NA,0,16,16,16,1,alcohol,wine,pro-alcohol,peer-produced,-1.2950087011564129
NA,NA,NA,NA,NA,NA,NA,NA,NA,NA,NA,NA,NA,NA,NA,NA,NA,NA,NA,NA,NA,NA,NA,SDC11125,1,NA,NA,NA,NA,NA,NA,pro_prof,pp60.png,portrait,website,0.25,1,2,435097_study2,2020-11-13_20h09.20.527,alcohol_value_task,2020.1.3,Win32,60,0.733915,NA,NA,0,17,17,17,1,alcohol,wine,pro-alcohol,professional,-1.2950087011564129
NA,NA,NA,NA,NA,NA,NA,NA,NA,NA,NA,NA,NA,NA,NA,NA,NA,NA,NA,NA,NA,NA,NA,SDC10989,4,NA,NA,NA,NA,NA,NA,anti_soc,as48.png,portrait,website,0.25,0.75,2,435097_study2,2020-11-13_20h09.20.527,alcohol_value_task,2020.1.3,Win32,60,0.438925,NA,NA,0,18,18,18,1,non-alcohol,miscellaneous,anti-alcohol,peer-produced,0.8011006992557882
NA,NA,NA,NA,NA,NA,NA,NA,NA,NA,NA,NA,NA,NA,NA,NA,NA,NA,NA,NA,NA,NA,NA,SDC10744,5,NA,NA,NA,NA,NA,NA,anti_prof,ap87.png,landscape,social_media,0.5,0.25,2,435097_study2,2020-11-13_20h09.20.527,alcohol_value_task,2020.1.3,Win32,60,0.27031,NA,NA,0,19,19,19,1,non-alcohol,water,anti-alcohol,professional,1.499803832726522
NA,NA,NA,NA,NA,NA,NA,NA,NA,NA,NA,NA,NA,NA,NA,NA,NA,NA,NA,NA,NA,NA,NA,SDC10990,4,NA,NA,NA,NA,NA,NA,anti_prof,ap32.png,landscape,social_media,0.5,0.5,2,435097_study2,2020-11-13_20h09.20.527,alcohol_value_task,2020.1.3,Win32,60,0.354675,NA,NA,0,20,20,20,1,non-alcohol,miscellaneous,anti-alcohol,professional,0.8011006992557882
NA,NA,NA,NA,NA,NA,NA,NA,NA,NA,NA,NA,NA,NA,NA,NA,NA,NA,NA,NA,NA,NA,NA,SDC10989,4,NA,NA,NA,NA,NA,NA,anti_prof,ap50.png,landscape,social_media,0.5,1,2,435097_study2,2020-11-13_20h09.20.527,alcohol_value_task,2020.1.3,Win32,60,0.35094,NA,NA,0,21,21,21,1,non-alcohol,miscellaneous,anti-alcohol,professional,0.8011006992557882
NA,NA,NA,NA,NA,NA,NA,NA,NA,NA,NA,NA,NA,NA,NA,NA,NA,NA,NA,NA,NA,NA,NA,SDC10744,5,NA,NA,NA,NA,NA,NA,pro_prof,pp39.png,portrait,social_media,0.75,0.75,2,435097_study2,2020-11-13_20h09.20.527,alcohol_value_task,2020.1.3,Win32,60,0.64505,NA,NA,0,22,22,22,1,non-alcohol,water,pro-alcohol,professional,1.499803832726522
NA,NA,NA,NA,NA,NA,NA,NA,NA,NA,NA,NA,NA,NA,NA,NA,NA,NA,NA,NA,NA,NA,NA,SDC12117,1,NA,NA,NA,NA,NA,NA,anti_prof,ap53.png,landscape,social_media,0.5,1,2,435097_study2,2020-11-13_20h09.20.527,alcohol_value_task,2020.1.3,Win32,60,0.29681,NA,NA,0,23,23,23,1,alcohol,spirits,anti-alcohol,professional,-1.2950087011564129
NA,NA,NA,NA,NA,NA,NA,NA,NA,NA,NA,NA,NA,NA,NA,NA,NA,NA,NA,NA,NA,NA,NA,SDC10744,5,NA,NA,NA,NA,NA,NA,pro_soc,ps49.png,landscape,website,0.75,1,2,435097_study2,2020-11-13_20h09.20.527,alcohol_value_task,2020.1.3,Win32,60,1.3237,NA,NA,0,24,24,24,1,non-alcohol,water,pro-alcohol,peer-produced,1.499803832726522
NA,NA,NA,NA,NA,NA,NA,NA,NA,NA,NA,NA,NA,NA,NA,NA,NA,NA,NA,NA,NA,NA,NA,SDC10990,2,NA,NA,NA,NA,NA,NA,pro_soc,ps17.png,portrait,website,0.5,0.5,2,435097_study2,2020-11-13_20h09.20.527,alcohol_value_task,2020.1.3,Win32,60,1.051145,NA,NA,0,25,25,25,1,non-alcohol,miscellaneous,pro-alcohol,peer-produced,-0.5963055676856792
NA,NA,NA,NA,NA,NA,NA,NA,NA,NA,NA,NA,NA,NA,NA,NA,NA,NA,NA,NA,NA,NA,NA,SDC12117,1,NA,NA,NA,NA,NA,NA,anti_soc,as10.png,portrait,social_media,1,0.75,2,435097_study2,2020-11-13_20h09.20.527,alcohol_value_task,2020.1.3,Win32,60,0.26738,NA,NA,0,26,26,26,1,alcohol,spirits,anti-alcohol,peer-produced,-1.2950087011564129
NA,NA,NA,NA,NA,NA,NA,NA,NA,NA,NA,NA,NA,NA,NA,NA,NA,NA,NA,NA,NA,NA,NA,SDC10989,3,NA,NA,NA,NA,NA,NA,pro_soc,ps19.png,portrait,social_media,0.25,1,2,435097_study2,2020-11-13_20h09.20.527,alcohol_value_task,2020.1.3,Win32,60,0.41238,NA,NA,0,27,27,27,1,non-alcohol,miscellaneous,pro-alcohol,peer-produced,0.10239756578505452
NA,NA,NA,NA,NA,NA,NA,NA,NA,NA,NA,NA,NA,NA,NA,NA,NA,NA,NA,NA,NA,NA,NA,SDC10990,2,NA,NA,NA,NA,NA,NA,pro_prof,pp18.png,portrait,website,0.75,0.25,2,435097_study2,2020-11-13_20h09.20.527,alcohol_value_task,2020.1.3,Win32,60,0.978705,NA,NA,0,28,28,28,1,non-alcohol,miscellaneous,pro-alcohol,professional,-0.5963055676856792
NA,NA,NA,NA,NA,NA,NA,NA,NA,NA,NA,NA,NA,NA,NA,NA,NA,NA,NA,NA,NA,NA,NA,SDC12117,1,NA,NA,NA,NA,NA,NA,pro_soc,ps7.png,landscape,social_media,0.75,0.5,2,435097_study2,2020-11-13_20h09.20.527,alcohol_value_task,2020.1.3,Win32,60,0.28393,NA,NA,0,29,29,29,1,alcohol,spirits,pro-alcohol,peer-produced,-1.2950087011564129
NA,NA,NA,NA,NA,NA,NA,NA,NA,NA,NA,NA,NA,NA,NA,NA,NA,NA,NA,NA,NA,NA,NA,SDC11127,2,NA,NA,NA,NA,NA,NA,anti_prof,ap23.png,portrait,website,1,0.5,2,435097_study2,2020-11-13_20h09.20.527,alcohol_value_task,2020.1.3,Win32,60,0.600205,NA,NA,0,30,30,30,1,alcohol,wine,anti-alcohol,professional,-0.5963055676856792
NA,NA,NA,NA,NA,NA,NA,NA,NA,NA,NA,NA,NA,NA,NA,NA,NA,NA,NA,NA,NA,NA,NA,SDC11127,3,NA,NA,NA,NA,NA,NA,pro_soc,ps27.png,portrait,website,0.25,0.25,2,435097_study2,2020-11-13_20h09.20.527,alcohol_value_task,2020.1.3,Win32,60,0.933555,NA,NA,0,31,31,31,1,alcohol,wine,pro-alcohol,peer-produced,0.10239756578505452
NA,NA,NA,NA,NA,NA,NA,NA,NA,NA,NA,NA,NA,NA,NA,NA,NA,NA,NA,NA,NA,NA,NA,SDC10989,3,NA,NA,NA,NA,NA,NA,pro_prof,pp54.png,portrait,website,1,0.25,2,435097_study2,2020-11-13_20h09.20.527,alcohol_value_task,2020.1.3,Win32,60,0.483635,NA,NA,0,32,32,32,1,non-alcohol,miscellaneous,pro-alcohol,professional,0.10239756578505452
NA,NA,NA,NA,NA,NA,NA,NA,NA,NA,NA,NA,NA,NA,NA,NA,NA,NA,NA,NA,NA,NA,NA,SDC10708,3,NA,NA,NA,NA,NA,NA,anti_prof,ap9.png,landscape,social_media,0.75,0.5,2,435097_study2,2020-11-13_20h09.20.527,alcohol_value_task,2020.1.3,Win32,60,0.30053,NA,NA,0,33,33,33,1,alcohol,wine,anti-alcohol,professional,0.10239756578505452
NA,NA,NA,NA,NA,NA,NA,NA,NA,NA,NA,NA,NA,NA,NA,NA,NA,NA,NA,NA,NA,NA,NA,SDC11110,1,NA,NA,NA,NA,NA,NA,anti_prof,ap46.png,landscape,website,0.75,0.75,2,435097_study2,2020-11-13_20h09.20.527,alcohol_value_task,2020.1.3,Win32,60,0.316915,NA,NA,0,34,34,34,1,alcohol,spirits,anti-alcohol,professional,-1.2950087011564129
NA,NA,NA,NA,NA,NA,NA,NA,NA,NA,NA,NA,NA,NA,NA,NA,NA,NA,NA,NA,NA,NA,NA,SDC10708,4,NA,NA,NA,NA,NA,NA,pro_soc,ps15.png,portrait,website,0.25,0.75,2,435097_study2,2020-11-13_20h09.20.527,alcohol_value_task,2020.1.3,Win32,60,0.285535,NA,NA,0,35,35,35,1,alcohol,wine,pro-alcohol,peer-produced,0.8011006992557882
NA,NA,NA,NA,NA,NA,NA,NA,NA,NA,NA,NA,NA,NA,NA,NA,NA,NA,NA,NA,NA,NA,NA,SDC12117,1,NA,NA,NA,NA,NA,NA,pro_prof,pp58.png,portrait,website,0.75,0.75,2,435097_study2,2020-11-13_20h09.20.527,alcohol_value_task,2020.1.3,Win32,60,0.318575,NA,NA,0,36,36,36,1,alcohol,spirits,pro-alcohol,professional,-1.2950087011564129
NA,NA,NA,NA,NA,NA,NA,NA,NA,NA,NA,NA,NA,NA,NA,NA,NA,NA,NA,NA,NA,NA,NA,SDC11127,1,NA,NA,NA,NA,NA,NA,anti_soc,as45.png,portrait,website,0.5,0.75,2,435097_study2,2020-11-13_20h09.20.527,alcohol_value_task,2020.1.3,Win32,60,0.42967,NA,NA,0,37,37,37,1,alcohol,wine,anti-alcohol,peer-produced,-1.2950087011564129
NA,NA,NA,NA,NA,NA,NA,NA,NA,NA,NA,NA,NA,NA,NA,NA,NA,NA,NA,NA,NA,NA,NA,SDC11127,2,NA,NA,NA,NA,NA,NA,pro_prof,pp24.png,portrait,social_media,0.5,0.75,2,435097_study2,2020-11-13_20h09.20.527,alcohol_value_task,2020.1.3,Win32,60,0.30055,NA,NA,0,38,38,38,1,alcohol,wine,pro-alcohol,professional,-0.5963055676856792
NA,NA,NA,NA,NA,NA,NA,NA,NA,NA,NA,NA,NA,NA,NA,NA,NA,NA,NA,NA,NA,NA,NA,SDC10708,4,NA,NA,NA,NA,NA,NA,anti_soc,as6.png,portrait,social_media,0.75,0.25,2,435097_study2,2020-11-13_20h09.20.527,alcohol_value_task,2020.1.3,Win32,60,1.167565,NA,NA,0,39,39,39,1,alcohol,wine,anti-alcohol,peer-produced,0.8011006992557882
NA,NA,NA,NA,NA,NA,NA,NA,NA,NA,NA,NA,NA,NA,NA,NA,NA,NA,NA,NA,NA,NA,NA,SDC11128,1,NA,NA,NA,NA,NA,NA,anti_prof,ap83.png,portrait,website,0.75,0.25,2,435097_study2,2020-11-13_20h09.20.527,alcohol_value_task,2020.1.3,Win32,60,0.23394,NA,NA,0,40,40,40,1,alcohol,wine,anti-alcohol,professional,-1.2950087011564129
NA,NA,NA,NA,NA,NA,NA,NA,NA,NA,NA,NA,NA,NA,NA,NA,NA,NA,NA,NA,NA,NA,NA,SDC11110,1,NA,NA,NA,NA,NA,NA,anti_soc,as23.png,portrait,social_media,1,0.5,2,435097_study2,2020-11-13_20h09.20.527,alcohol_value_task,2020.1.3,Win32,60,0.268865,NA,NA,0,41,41,41,1,alcohol,spirits,anti-alcohol,peer-produced,-1.2950087011564129
NA,NA,NA,NA,NA,NA,NA,NA,NA,NA,NA,NA,NA,NA,NA,NA,NA,NA,NA,NA,NA,NA,NA,SDC10708,4,NA,NA,NA,NA,NA,NA,pro_prof,pp28.png,portrait,website,1,1,2,435097_study2,2020-11-13_20h09.20.527,alcohol_value_task,2020.1.3,Win32,60,0.350455,NA,NA,0,42,42,42,1,alcohol,wine,pro-alcohol,professional,0.8011006992557882
NA,NA,NA,NA,NA,NA,NA,NA,NA,NA,NA,NA,NA,NA,NA,NA,NA,NA,NA,NA,NA,NA,NA,SDC11065,4,NA,NA,NA,NA,NA,NA,anti_prof,ap4.png,landscape,website,0.5,0.5,2,435097_study2,2020-11-13_20h09.20.527,alcohol_value_task,2020.1.3,Win32,60,0.866555,NA,NA,0,43,43,43,1,alcohol,spirits,anti-alcohol,professional,0.8011006992557882
14,space,1.757145,1,5.98974,2,4.477495,3,5.169255,2,5.053685,5,13.1457,space,7.619155,space,4.896255,space,5.695035,space,7.50118,space,4.54239,SDC11184,NA,NA,0,0,0,0,1,pro_soc,ps22.png,landscape,social_media,1,1,1,435058_study2,2020-11-13_20h05.20.811,alcohol_value_task,2020.1.3,MacIntel,60,NA,NA,NA,NA,NA,NA,NA,NA,alcohol,beer,pro-alcohol,peer-produced,NA
NA,NA,NA,NA,NA,NA,NA,NA,NA,NA,NA,NA,NA,NA,NA,NA,NA,NA,NA,NA,NA,NA,NA,SDC11184,2,NA,0,1,1,1,1,anti_soc,as47.png,portrait,social_media,1,0.5,1,435058_study2,2020-11-13_20h05.20.811,alcohol_value_task,2020.1.3,MacIntel,60,1.715375,NA,NA,NA,NA,NA,NA,NA,alcohol,beer,anti-alcohol,peer-produced,-0.5963055676856792
NA,NA,NA,NA,NA,NA,NA,NA,NA,NA,NA,NA,NA,NA,NA,NA,NA,NA,NA,NA,NA,NA,NA,SDC11163,NA,NA,0,2,2,2,1,pro_soc,ps47.png,portrait,website,0.5,1,1,435058_study2,2020-11-13_20h05.20.811,alcohol_value_task,2020.1.3,MacIntel,60,NA,NA,NA,NA,NA,NA,NA,NA,alcohol,beer,pro-alcohol,peer-produced,NA
NA,NA,NA,NA,NA,NA,NA,NA,NA,NA,NA,NA,NA,NA,NA,NA,NA,NA,NA,NA,NA,NA,NA,SDC10891,2,NA,0,3,3,3,1,pro_soc,ps20.png,portrait,website,1,0.25,1,435058_study2,2020-11-13_20h05.20.811,alcohol_value_task,2020.1.3,MacIntel,60,1.566165,NA,NA,NA,NA,NA,NA,NA,alcohol,beer,pro-alcohol,peer-produced,-0.5963055676856792
NA,NA,NA,NA,NA,NA,NA,NA,NA,NA,NA,NA,NA,NA,NA,NA,NA,NA,NA,NA,NA,NA,NA,SDC11163,NA,NA,0,4,4,4,1,anti_soc,as22.png,portrait,website,0.5,0.25,1,435058_study2,2020-11-13_20h05.20.811,alcohol_value_task,2020.1.3,MacIntel,60,NA,NA,NA,NA,NA,NA,NA,NA,alcohol,beer,anti-alcohol,peer-produced,NA
NA,NA,NA,NA,NA,NA,NA,NA,NA,NA,NA,NA,NA,NA,NA,NA,NA,NA,NA,NA,NA,NA,NA,SDC11050,3,NA,0,5,5,5,1,pro_soc,ps33.png,landscape,website,0.75,0.75,1,435058_study2,2020-11-13_20h05.20.811,alcohol_value_task,2020.1.3,MacIntel,60,0.93245,NA,NA,NA,NA,NA,NA,NA,non-alcohol,miscellaneous,pro-alcohol,peer-produced,0.10239756578505452
NA,NA,NA,NA,NA,NA,NA,NA,NA,NA,NA,NA,NA,NA,NA,NA,NA,NA,NA,NA,NA,NA,NA,SDC10891,3,NA,0,6,6,6,1,anti_soc,as14.png,portrait,social_media,0.75,1,1,435058_study2,2020-11-13_20h05.20.811,alcohol_value_task,2020.1.3,MacIntel,60,1.043255,NA,NA,NA,NA,NA,NA,NA,alcohol,beer,anti-alcohol,peer-produced,0.10239756578505452
NA,NA,NA,NA,NA,NA,NA,NA,NA,NA,NA,NA,NA,NA,NA,NA,NA,NA,NA,NA,NA,NA,NA,SDC11184,3,NA,0,7,7,7,1,pro_prof,pp26.png,portrait,social_media,0.5,0.25,1,435058_study2,2020-11-13_20h05.20.811,alcohol_value_task,2020.1.3,MacIntel,60,0.97081,NA,NA,NA,NA,NA,NA,NA,alcohol,beer,pro-alcohol,professional,0.10239756578505452
NA,NA,NA,NA,NA,NA,NA,NA,NA,NA,NA,NA,NA,NA,NA,NA,NA,NA,NA,NA,NA,NA,NA,SDC11184,3,NA,0,8,8,8,1,anti_prof,ap67.png,portrait,social_media,0.25,0.25,1,435058_study2,2020-11-13_20h05.20.811,alcohol_value_task,2020.1.3,MacIntel,60,1.43586,NA,NA,NA,NA,NA,NA,NA,alcohol,beer,anti-alcohol,professional,0.10239756578505452
NA,NA,NA,NA,NA,NA,NA,NA,NA,NA,NA,NA,NA,NA,NA,NA,NA,NA,NA,NA,NA,NA,NA,SDC11163,2,NA,0,9,9,9,1,pro_prof,pp14.png,portrait,website,0.5,0.75,1,435058_study2,2020-11-13_20h05.20.811,alcohol_value_task,2020.1.3,MacIntel,60,0.731845,NA,NA,NA,NA,NA,NA,NA,alcohol,beer,pro-alcohol,professional,-0.5963055676856792
NA,NA,NA,NA,NA,NA,NA,NA,NA,NA,NA,NA,NA,NA,NA,NA,NA,NA,NA,NA,NA,NA,NA,SDC10891,3,NA,0,10,10,10,1,pro_prof,pp13.png,portrait,social_media,0.75,0.75,1,435058_study2,2020-11-13_20h05.20.811,alcohol_value_task,2020.1.3,MacIntel,60,1.0821,NA,NA,NA,NA,NA,NA,NA,alcohol,beer,pro-alcohol,professional,0.10239756578505452
NA,NA,NA,NA,NA,NA,NA,NA,NA,NA,NA,NA,NA,NA,NA,NA,NA,NA,NA,NA,NA,NA,NA,SDC11163,2,NA,0,11,11,11,1,anti_prof,ap4.png,landscape,social_media,0.25,1,1,435058_study2,2020-11-13_20h05.20.811,alcohol_value_task,2020.1.3,MacIntel,60,0.75237,NA,NA,NA,NA,NA,NA,NA,alcohol,beer,anti-alcohol,professional,-0.5963055676856792
NA,NA,NA,NA,NA,NA,NA,NA,NA,NA,NA,NA,NA,NA,NA,NA,NA,NA,NA,NA,NA,NA,NA,SDC11050,4,NA,0,12,12,12,1,pro_prof,pp54.png,portrait,website,0.25,0.75,1,435058_study2,2020-11-13_20h05.20.811,alcohol_value_task,2020.1.3,MacIntel,60,0.449975,NA,NA,NA,NA,NA,NA,NA,non-alcohol,miscellaneous,pro-alcohol,professional,0.8011006992557882
NA,NA,NA,NA,NA,NA,NA,NA,NA,NA,NA,NA,NA,NA,NA,NA,NA,NA,NA,NA,NA,NA,NA,SDC11067,4,NA,0,13,13,13,1,pro_soc,ps51.png,portrait,social_media,0.75,0.25,1,435058_study2,2020-11-13_20h05.20.811,alcohol_value_task,2020.1.3,MacIntel,60,0.8863,NA,NA,NA,NA,NA,NA,NA,alcohol,spirits,pro-alcohol,peer-produced,0.8011006992557882
NA,NA,NA,NA,NA,NA,NA,NA,NA,NA,NA,NA,NA,NA,NA,NA,NA,NA,NA,NA,NA,NA,NA,SDC11067,2,3,0,14,14,14,1,pro_prof,pp42.png,portrait,website,0.25,0.75,1,435058_study2,2020-11-13_20h05.20.811,alcohol_value_task,2020.1.3,MacIntel,60,0.799465,NA,NA,NA,NA,NA,NA,NA,alcohol,spirits,pro-alcohol,professional,-0.5963055676856792
NA,NA,NA,NA,NA,NA,NA,NA,NA,NA,NA,NA,NA,NA,NA,NA,NA,NA,NA,NA,NA,NA,NA,SDC10891,3,NA,0,15,15,15,1,anti_prof,ap23.png,portrait,social_media,0.5,1,1,435058_study2,2020-11-13_20h05.20.811,alcohol_value_task,2020.1.3,MacIntel,60,0.768505,NA,NA,NA,NA,NA,NA,NA,alcohol,beer,anti-alcohol,professional,0.10239756578505452
NA,NA,NA,NA,NA,NA,NA,NA,NA,NA,NA,NA,NA,NA,NA,NA,NA,NA,NA,NA,NA,NA,NA,SDC11050,3,NA,0,16,16,16,1,anti_prof,ap16.png,portrait,social_media,0.75,1,1,435058_study2,2020-11-13_20h05.20.811,alcohol_value_task,2020.1.3,MacIntel,60,1.673495,NA,NA,NA,NA,NA,NA,NA,non-alcohol,miscellaneous,anti-alcohol,professional,0.10239756578505452
NA,NA,NA,NA,NA,NA,NA,NA,NA,NA,NA,NA,NA,NA,NA,NA,NA,NA,NA,NA,NA,NA,NA,SDC11067,2,NA,0,17,17,17,1,anti_prof,ap9.png,landscape,social_media,0.75,0.5,1,435058_study2,2020-11-13_20h05.20.811,alcohol_value_task,2020.1.3,MacIntel,60,1.04982,NA,NA,NA,NA,NA,NA,NA,alcohol,spirits,anti-alcohol,professional,-0.5963055676856792
NA,NA,NA,NA,NA,NA,NA,NA,NA,NA,NA,NA,NA,NA,NA,NA,NA,NA,NA,NA,NA,NA,NA,SDC11050,4,NA,0,18,18,18,1,anti_soc,as48.png,portrait,social_media,0.5,0.75,1,435058_study2,2020-11-13_20h05.20.811,alcohol_value_task,2020.1.3,MacIntel,60,0.98297,NA,NA,NA,NA,NA,NA,NA,non-alcohol,miscellaneous,anti-alcohol,peer-produced,0.8011006992557882
NA,NA,NA,NA,NA,NA,NA,NA,NA,NA,NA,NA,NA,NA,NA,NA,NA,NA,NA,NA,NA,NA,NA,SDC10885,4,NA,0,19,19,19,1,anti_prof,ap82.png,landscape,website,0.25,1,1,435058_study2,2020-11-13_20h05.20.811,alcohol_value_task,2020.1.3,MacIntel,60,1.532955,NA,NA,NA,NA,NA,NA,NA,alcohol,beer,anti-alcohol,professional,0.8011006992557882
NA,NA,NA,NA,NA,NA,NA,NA,NA,NA,NA,NA,NA,NA,NA,NA,NA,NA,NA,NA,NA,NA,NA,SDC10885,4,NA,0,20,20,20,1,pro_prof,pp58.png,portrait,website,1,0.5,1,435058_study2,2020-11-13_20h05.20.811,alcohol_value_task,2020.1.3,MacIntel,60,0.86645,NA,NA,NA,NA,NA,NA,NA,alcohol,beer,pro-alcohol,professional,0.8011006992557882
NA,NA,NA,NA,NA,NA,NA,NA,NA,NA,NA,NA,NA,NA,NA,NA,NA,NA,NA,NA,NA,NA,NA,SDC11162,1,3,0,21,21,21,1,anti_prof,ap49.png,landscape,social_media,0.25,1,1,435058_study2,2020-11-13_20h05.20.811,alcohol_value_task,2020.1.3,MacIntel,60,0.89253,NA,NA,NA,NA,NA,NA,NA,alcohol,beer,anti-alcohol,professional,-1.2950087011564129
NA,NA,NA,NA,NA,NA,NA,NA,NA,NA,NA,NA,NA,NA,NA,NA,NA,NA,NA,NA,NA,NA,NA,SDC11162,4,NA,0,22,22,22,1,pro_prof,pp51.png,portrait,social_media,0.25,1,1,435058_study2,2020-11-13_20h05.20.811,alcohol_value_task,2020.1.3,MacIntel,60,0.781405,NA,NA,NA,NA,NA,NA,NA,alcohol,beer,pro-alcohol,professional,0.8011006992557882
NA,NA,NA,NA,NA,NA,NA,NA,NA,NA,NA,NA,NA,NA,NA,NA,NA,NA,NA,NA,NA,NA,NA,SDC10893,4,NA,0,23,23,23,1,pro_prof,pp15.png,portrait,social_media,0.75,0.25,1,435058_study2,2020-11-13_20h05.20.811,alcohol_value_task,2020.1.3,MacIntel,60,0.664275,NA,NA,NA,NA,NA,NA,NA,alcohol,beer,pro-alcohol,professional,0.8011006992557882
NA,NA,NA,NA,NA,NA,NA,NA,NA,NA,NA,NA,NA,NA,NA,NA,NA,NA,NA,NA,NA,NA,NA,SDC11067,4,NA,0,24,24,24,1,anti_soc,as56.png,portrait,social_media,0.5,0.25,1,435058_study2,2020-11-13_20h05.20.811,alcohol_value_task,2020.1.3,MacIntel,60,0.82769,NA,NA,NA,NA,NA,NA,NA,alcohol,spirits,anti-alcohol,peer-produced,0.8011006992557882
NA,NA,NA,NA,NA,NA,NA,NA,NA,NA,NA,NA,NA,NA,NA,NA,NA,NA,NA,NA,NA,NA,NA,SDC10885,4,NA,0,25,25,25,1,anti_soc,as16.png,portrait,social_media,0.75,0.25,1,435058_study2,2020-11-13_20h05.20.811,alcohol_value_task,2020.1.3,MacIntel,60,0.4523,NA,NA,NA,NA,NA,NA,NA,alcohol,beer,anti-alcohol,peer-produced,0.8011006992557882
NA,NA,NA,NA,NA,NA,NA,NA,NA,NA,NA,NA,NA,NA,NA,NA,NA,NA,NA,NA,NA,NA,NA,SDC11162,4,NA,0,26,26,26,1,anti_soc,as8.png,portrait,website,1,0.75,1,435058_study2,2020-11-13_20h05.20.811,alcohol_value_task,2020.1.3,MacIntel,60,1.557185,NA,NA,NA,NA,NA,NA,NA,alcohol,beer,anti-alcohol,peer-produced,0.8011006992557882
NA,NA,NA,NA,NA,NA,NA,NA,NA,NA,NA,NA,NA,NA,NA,NA,NA,NA,NA,NA,NA,NA,NA,SDC10893,1,NA,0,27,27,27,1,anti_prof,ap77.png,portrait,social_media,1,0.25,1,435058_study2,2020-11-13_20h05.20.811,alcohol_value_task,2020.1.3,MacIntel,60,1.017535,NA,NA,NA,NA,NA,NA,NA,alcohol,beer,anti-alcohol,professional,-1.2950087011564129
NA,NA,NA,NA,NA,NA,NA,NA,NA,NA,NA,NA,NA,NA,NA,NA,NA,NA,NA,NA,NA,NA,NA,SDC11108,4,NA,0,28,28,28,1,pro_prof,pp32.png,portrait,website,0.75,0.25,1,435058_study2,2020-11-13_20h05.20.811,alcohol_value_task,2020.1.3,MacIntel,60,1.550775,NA,NA,NA,NA,NA,NA,NA,alcohol,spirits,pro-alcohol,professional,0.8011006992557882
NA,NA,NA,NA,NA,NA,NA,NA,NA,NA,NA,NA,NA,NA,NA,NA,NA,NA,NA,NA,NA,NA,NA,SDC10893,4,NA,0,29,29,29,1,anti_soc,as43.png,portrait,social_media,0.75,0.25,1,435058_study2,2020-11-13_20h05.20.811,alcohol_value_task,2020.1.3,MacIntel,60,0.53544,NA,NA,NA,NA,NA,NA,NA,alcohol,beer,anti-alcohol,peer-produced,0.8011006992557882
NA,NA,NA,NA,NA,NA,NA,NA,NA,NA,NA,NA,NA,NA,NA,NA,NA,NA,NA,NA,NA,NA,NA,SDC10885,4,NA,0,30,30,30,1,pro_soc,ps25.png,portrait,website,1,0.75,1,435058_study2,2020-11-13_20h05.20.811,alcohol_value_task,2020.1.3,MacIntel,60,0.584175,NA,NA,NA,NA,NA,NA,NA,alcohol,beer,pro-alcohol,peer-produced,0.8011006992557882
NA,NA,NA,NA,NA,NA,NA,NA,NA,NA,NA,NA,NA,NA,NA,NA,NA,NA,NA,NA,NA,NA,NA,SDC11108,4,NA,0,31,31,31,1,anti_soc,as44.png,portrait,website,0.5,0.5,1,435058_study2,2020-11-13_20h05.20.811,alcohol_value_task,2020.1.3,MacIntel,60,1.103215,NA,NA,NA,NA,NA,NA,NA,alcohol,spirits,anti-alcohol,peer-produced,0.8011006992557882
NA,NA,NA,NA,NA,NA,NA,NA,NA,NA,NA,NA,NA,NA,NA,NA,NA,NA,NA,NA,NA,NA,NA,SDC11091,4,NA,0,32,32,32,1,pro_prof,pp12.png,portrait,website,0.75,1,1,435058_study2,2020-11-13_20h05.20.811,alcohol_value_task,2020.1.3,MacIntel,60,1.40135,NA,NA,NA,NA,NA,NA,NA,alcohol,spirits,pro-alcohol,professional,0.8011006992557882
NA,NA,NA,NA,NA,NA,NA,NA,NA,NA,NA,NA,NA,NA,NA,NA,NA,NA,NA,NA,NA,NA,NA,SDC11108,4,NA,0,33,33,33,1,anti_prof,ap39.png,portrait,social_media,0.75,0.25,1,435058_study2,2020-11-13_20h05.20.811,alcohol_value_task,2020.1.3,MacIntel,60,1.10345,NA,NA,NA,NA,NA,NA,NA,alcohol,spirits,anti-alcohol,professional,0.8011006992557882
NA,NA,NA,NA,NA,NA,NA,NA,NA,NA,NA,NA,NA,NA,NA,NA,NA,NA,NA,NA,NA,NA,NA,SDC11091,1,NA,0,34,34,34,1,anti_prof,ap69.png,portrait,website,0.25,0.5,1,435058_study2,2020-11-13_20h05.20.811,alcohol_value_task,2020.1.3,MacIntel,60,0.38748,NA,NA,NA,NA,NA,NA,NA,alcohol,spirits,anti-alcohol,professional,-1.2950087011564129
NA,NA,NA,NA,NA,NA,NA,NA,NA,NA,NA,NA,NA,NA,NA,NA,NA,NA,NA,NA,NA,NA,NA,SDC10898,5,NA,0,35,35,35,1,pro_prof,pp28.png,portrait,website,0.5,0.75,1,435058_study2,2020-11-13_20h05.20.811,alcohol_value_task,2020.1.3,MacIntel,60,0.55003,NA,NA,NA,NA,NA,NA,NA,alcohol,beer,pro-alcohol,professional,1.499803832726522
NA,NA,NA,NA,NA,NA,NA,NA,NA,NA,NA,NA,NA,NA,NA,NA,NA,NA,NA,NA,NA,NA,NA,SDC11091,2,NA,0,36,36,36,1,anti_soc,as58.png,portrait,website,1,0.25,1,435058_study2,2020-11-13_20h05.20.811,alcohol_value_task,2020.1.3,MacIntel,60,0.73284,NA,NA,NA,NA,NA,NA,NA,alcohol,spirits,anti-alcohol,peer-produced,-0.5963055676856792
NA,NA,NA,NA,NA,NA,NA,NA,NA,NA,NA,NA,NA,NA,NA,NA,NA,NA,NA,NA,NA,NA,NA,SDC11162,3,NA,0,37,37,37,1,pro_soc,ps14.png,portrait,social_media,0.75,0.25,1,435058_study2,2020-11-13_20h05.20.811,alcohol_value_task,2020.1.3,MacIntel,60,1.86686,NA,NA,NA,NA,NA,NA,NA,alcohol,beer,pro-alcohol,peer-produced,0.10239756578505452
NA,NA,NA,NA,NA,NA,NA,NA,NA,NA,NA,NA,NA,NA,NA,NA,NA,NA,NA,NA,NA,NA,NA,SDC10898,1,NA,0,38,38,38,1,anti_soc,as46.png,portrait,social_media,0.75,0.75,1,435058_study2,2020-11-13_20h05.20.811,alcohol_value_task,2020.1.3,MacIntel,60,1.219995,NA,NA,NA,NA,NA,NA,NA,alcohol,beer,anti-alcohol,peer-produced,-1.2950087011564129
NA,NA,NA,NA,NA,NA,NA,NA,NA,NA,NA,NA,NA,NA,NA,NA,NA,NA,NA,NA,NA,NA,NA,SDC10893,2,NA,0,39,39,39,1,pro_soc,ps7.png,landscape,social_media,1,0.25,1,435058_study2,2020-11-13_20h05.20.811,alcohol_value_task,2020.1.3,MacIntel,60,0.731885,NA,NA,NA,NA,NA,NA,NA,alcohol,beer,pro-alcohol,peer-produced,-0.5963055676856792
NA,NA,NA,NA,NA,NA,NA,NA,NA,NA,NA,NA,NA,NA,NA,NA,NA,NA,NA,NA,NA,NA,NA,SDC10808,5,NA,0,40,40,40,1,anti_soc,as25.png,portrait,social_media,0.25,1,1,435058_study2,2020-11-13_20h05.20.811,alcohol_value_task,2020.1.3,MacIntel,60,1.38327,NA,NA,NA,NA,NA,NA,NA,non-alcohol,soft_drinks,anti-alcohol,peer-produced,1.499803832726522
NA,NA,NA,NA,NA,NA,NA,NA,NA,NA,NA,NA,NA,NA,NA,NA,NA,NA,NA,NA,NA,NA,NA,SDC10808,5,NA,0,41,41,41,1,pro_prof,pp44.png,portrait,social_media,0.5,1,1,435058_study2,2020-11-13_20h05.20.811,alcohol_value_task,2020.1.3,MacIntel,60,1.103625,NA,NA,NA,NA,NA,NA,NA,non-alcohol,soft_drinks,pro-alcohol,professional,1.499803832726522
NA,NA,NA,NA,NA,NA,NA,NA,NA,NA,NA,NA,NA,NA,NA,NA,NA,NA,NA,NA,NA,NA,NA,SDC11108,4,NA,0,42,42,42,1,pro_soc,ps29.png,portrait,social_media,1,0.75,1,435058_study2,2020-11-13_20h05.20.811,alcohol_value_task,2020.1.3,MacIntel,60,1.403335,NA,NA,NA,NA,NA,NA,NA,alcohol,spirits,pro-alcohol,peer-produced,0.8011006992557882
NA,NA,NA,NA,NA,NA,NA,NA,NA,NA,NA,NA,NA,NA,NA,NA,NA,NA,NA,NA,NA,NA,NA,SDC10898,4,NA,0,43,43,43,1,anti_prof,ap71.png,landscape,social_media,0.25,1,1,435058_study2,2020-11-13_20h05.20.811,alcohol_value_task,2020.1.3,MacIntel,60,1.16911,NA,NA,NA,NA,NA,NA,NA,alcohol,beer,anti-alcohol,professional,0.8011006992557882
NA,NA,NA,NA,NA,NA,NA,NA,NA,NA,NA,NA,NA,NA,NA,NA,NA,NA,NA,NA,NA,NA,NA,SDC11184,5,NA,NA,NA,NA,NA,NA,pro_soc,ps49.png,landscape,website,1,1,2,435058_study2,2020-11-13_20h05.20.811,alcohol_value_task,2020.1.3,MacIntel,60,0.803045,space,27.923815,0,0,0,0,1,alcohol,beer,pro-alcohol,peer-produced,1.499803832726522
NA,NA,NA,NA,NA,NA,NA,NA,NA,NA,NA,NA,NA,NA,NA,NA,NA,NA,NA,NA,NA,NA,NA,SDC11184,NA,4,NA,NA,NA,NA,NA,anti_soc,as4.png,portrait,website,1,0.25,2,435058_study2,2020-11-13_20h05.20.811,alcohol_value_task,2020.1.3,MacIntel,60,NA,NA,NA,0,1,1,1,1,alcohol,beer,anti-alcohol,peer-produced,NA
NA,NA,NA,NA,NA,NA,NA,NA,NA,NA,NA,NA,NA,NA,NA,NA,NA,NA,NA,NA,NA,NA,NA,SDC11184,4,NA,NA,NA,NA,NA,NA,anti_prof,ap52.png,portrait,website,0.25,0.75,2,435058_study2,2020-11-13_20h05.20.811,alcohol_value_task,2020.1.3,MacIntel,60,1.233475,NA,NA,0,2,2,2,1,alcohol,beer,anti-alcohol,professional,0.8011006992557882
NA,NA,NA,NA,NA,NA,NA,NA,NA,NA,NA,NA,NA,NA,NA,NA,NA,NA,NA,NA,NA,NA,NA,SDC11163,3,NA,NA,NA,NA,NA,NA,anti_prof,ap32.png,landscape,social_media,0.5,1,2,435058_study2,2020-11-13_20h05.20.811,alcohol_value_task,2020.1.3,MacIntel,60,1.684775,NA,NA,0,3,3,3,1,alcohol,beer,anti-alcohol,professional,0.10239756578505452
NA,NA,NA,NA,NA,NA,NA,NA,NA,NA,NA,NA,NA,NA,NA,NA,NA,NA,NA,NA,NA,NA,NA,SDC11163,1,NA,NA,NA,NA,NA,NA,anti_soc,as45.png,portrait,website,0.25,1,2,435058_study2,2020-11-13_20h05.20.811,alcohol_value_task,2020.1.3,MacIntel,60,1.019805,NA,NA,0,4,4,4,1,alcohol,beer,anti-alcohol,peer-produced,-1.2950087011564129
NA,NA,NA,NA,NA,NA,NA,NA,NA,NA,NA,NA,NA,NA,NA,NA,NA,NA,NA,NA,NA,NA,NA,SDC11163,NA,3,NA,NA,NA,NA,NA,pro_soc,ps58.png,portrait,website,0.25,0.75,2,435058_study2,2020-11-13_20h05.20.811,alcohol_value_task,2020.1.3,MacIntel,60,NA,NA,NA,0,5,5,5,1,alcohol,beer,pro-alcohol,peer-produced,NA
NA,NA,NA,NA,NA,NA,NA,NA,NA,NA,NA,NA,NA,NA,NA,NA,NA,NA,NA,NA,NA,NA,NA,SDC10891,2,NA,NA,NA,NA,NA,NA,anti_soc,as6.png,portrait,social_media,0.75,0.5,2,435058_study2,2020-11-13_20h05.20.811,alcohol_value_task,2020.1.3,MacIntel,60,1.7665,NA,NA,0,6,6,6,1,alcohol,beer,anti-alcohol,peer-produced,-0.5963055676856792
NA,NA,NA,NA,NA,NA,NA,NA,NA,NA,NA,NA,NA,NA,NA,NA,NA,NA,NA,NA,NA,NA,NA,SDC10891,1,NA,NA,NA,NA,NA,NA,anti_prof,ap34.png,landscape,website,0.5,0.5,2,435058_study2,2020-11-13_20h05.20.811,alcohol_value_task,2020.1.3,MacIntel,60,1.501585,NA,NA,0,7,7,7,1,alcohol,beer,anti-alcohol,professional,-1.2950087011564129
NA,NA,NA,NA,NA,NA,NA,NA,NA,NA,NA,NA,NA,NA,NA,NA,NA,NA,NA,NA,NA,NA,NA,SDC11050,4,NA,NA,NA,NA,NA,NA,anti_prof,ap50.png,landscape,website,1,0.5,2,435058_study2,2020-11-13_20h05.20.811,alcohol_value_task,2020.1.3,MacIntel,60,1.281195,NA,NA,0,8,8,8,1,non-alcohol,miscellaneous,anti-alcohol,professional,0.8011006992557882
NA,NA,NA,NA,NA,NA,NA,NA,NA,NA,NA,NA,NA,NA,NA,NA,NA,NA,NA,NA,NA,NA,NA,SDC11184,NA,NA,NA,NA,NA,NA,NA,pro_prof,pp53.png,portrait,website,1,0.5,2,435058_study2,2020-11-13_20h05.20.811,alcohol_value_task,2020.1.3,MacIntel,60,NA,NA,NA,0,9,9,9,1,alcohol,beer,pro-alcohol,professional,NA
NA,NA,NA,NA,NA,NA,NA,NA,NA,NA,NA,NA,NA,NA,NA,NA,NA,NA,NA,NA,NA,NA,NA,SDC11163,NA,NA,NA,NA,NA,NA,NA,pro_prof,pp40.png,portrait,social_media,0.5,0.5,2,435058_study2,2020-11-13_20h05.20.811,alcohol_value_task,2020.1.3,MacIntel,60,NA,NA,NA,0,10,10,10,1,alcohol,beer,pro-alcohol,professional,NA
NA,NA,NA,NA,NA,NA,NA,NA,NA,NA,NA,NA,NA,NA,NA,NA,NA,NA,NA,NA,NA,NA,NA,SDC10891,4,NA,NA,NA,NA,NA,NA,pro_soc,ps42.png,portrait,website,0.25,0.5,2,435058_study2,2020-11-13_20h05.20.811,alcohol_value_task,2020.1.3,MacIntel,60,1.170925,NA,NA,0,11,11,11,1,alcohol,beer,pro-alcohol,peer-produced,0.8011006992557882
NA,NA,NA,NA,NA,NA,NA,NA,NA,NA,NA,NA,NA,NA,NA,NA,NA,NA,NA,NA,NA,NA,NA,SDC11050,4,NA,NA,NA,NA,NA,NA,pro_soc,ps17.png,portrait,website,0.5,0.5,2,435058_study2,2020-11-13_20h05.20.811,alcohol_value_task,2020.1.3,MacIntel,60,0.6874,NA,NA,0,12,12,12,1,non-alcohol,miscellaneous,pro-alcohol,peer-produced,0.8011006992557882
NA,NA,NA,NA,NA,NA,NA,NA,NA,NA,NA,NA,NA,NA,NA,NA,NA,NA,NA,NA,NA,NA,NA,SDC11067,2,NA,NA,NA,NA,NA,NA,anti_prof,ap19.png,portrait,social_media,0.25,0.5,2,435058_study2,2020-11-13_20h05.20.811,alcohol_value_task,2020.1.3,MacIntel,60,1.202595,NA,NA,0,13,13,13,1,alcohol,spirits,anti-alcohol,professional,-0.5963055676856792
NA,NA,NA,NA,NA,NA,NA,NA,NA,NA,NA,NA,NA,NA,NA,NA,NA,NA,NA,NA,NA,NA,NA,SDC11067,5,NA,NA,NA,NA,NA,NA,pro_soc,ps21.png,landscape,social_media,0.5,0.5,2,435058_study2,2020-11-13_20h05.20.811,alcohol_value_task,2020.1.3,MacIntel,60,1.335365,NA,NA,0,14,14,14,1,alcohol,spirits,pro-alcohol,peer-produced,1.499803832726522
NA,NA,NA,NA,NA,NA,NA,NA,NA,NA,NA,NA,NA,NA,NA,NA,NA,NA,NA,NA,NA,NA,NA,SDC11050,5,NA,NA,NA,NA,NA,NA,anti_soc,as18.png,portrait,social_media,0.5,0.5,2,435058_study2,2020-11-13_20h05.20.811,alcohol_value_task,2020.1.3,MacIntel,60,0.883815,NA,NA,0,15,15,15,1,non-alcohol,miscellaneous,anti-alcohol,peer-produced,1.499803832726522
NA,NA,NA,NA,NA,NA,NA,NA,NA,NA,NA,NA,NA,NA,NA,NA,NA,NA,NA,NA,NA,NA,NA,SDC10891,5,NA,NA,NA,NA,NA,NA,pro_prof,pp18.png,portrait,website,0.25,0.25,2,435058_study2,2020-11-13_20h05.20.811,alcohol_value_task,2020.1.3,MacIntel,60,1.469325,NA,NA,0,16,16,16,1,alcohol,beer,pro-alcohol,professional,1.499803832726522
NA,NA,NA,NA,NA,NA,NA,NA,NA,NA,NA,NA,NA,NA,NA,NA,NA,NA,NA,NA,NA,NA,NA,SDC11067,5,NA,NA,NA,NA,NA,NA,anti_soc,as52.png,portrait,social_media,0.25,1,2,435058_study2,2020-11-13_20h05.20.811,alcohol_value_task,2020.1.3,MacIntel,60,1.900945,NA,NA,0,17,17,17,1,alcohol,spirits,anti-alcohol,peer-produced,1.499803832726522
NA,NA,NA,NA,NA,NA,NA,NA,NA,NA,NA,NA,NA,NA,NA,NA,NA,NA,NA,NA,NA,NA,NA,SDC10885,4,NA,NA,NA,NA,NA,NA,pro_soc,ps35.png,portrait,website,0.75,0.75,2,435058_study2,2020-11-13_20h05.20.811,alcohol_value_task,2020.1.3,MacIntel,60,1.35859,NA,NA,0,18,18,18,1,alcohol,beer,pro-alcohol,peer-produced,0.8011006992557882
NA,NA,NA,NA,NA,NA,NA,NA,NA,NA,NA,NA,NA,NA,NA,NA,NA,NA,NA,NA,NA,NA,NA,SDC11162,5,NA,NA,NA,NA,NA,NA,pro_soc,ps19.png,portrait,website,0.5,0.25,2,435058_study2,2020-11-13_20h05.20.811,alcohol_value_task,2020.1.3,MacIntel,60,1.38471,NA,NA,0,19,19,19,1,alcohol,beer,pro-alcohol,peer-produced,1.499803832726522
NA,NA,NA,NA,NA,NA,NA,NA,NA,NA,NA,NA,NA,NA,NA,NA,NA,NA,NA,NA,NA,NA,NA,SDC11050,5,NA,NA,NA,NA,NA,NA,pro_prof,pp57.png,portrait,website,1,1,2,435058_study2,2020-11-13_20h05.20.811,alcohol_value_task,2020.1.3,MacIntel,60,1.09917,NA,NA,0,20,20,20,1,non-alcohol,miscellaneous,pro-alcohol,professional,1.499803832726522
NA,NA,NA,NA,NA,NA,NA,NA,NA,NA,NA,NA,NA,NA,NA,NA,NA,NA,NA,NA,NA,NA,NA,SDC11067,4,NA,NA,NA,NA,NA,NA,pro_prof,pp22.png,portrait,social_media,0.75,1,2,435058_study2,2020-11-13_20h05.20.811,alcohol_value_task,2020.1.3,MacIntel,60,1.033215,NA,NA,0,21,21,21,1,alcohol,spirits,pro-alcohol,professional,0.8011006992557882
NA,NA,NA,NA,NA,NA,NA,NA,NA,NA,NA,NA,NA,NA,NA,NA,NA,NA,NA,NA,NA,NA,NA,SDC10885,4,NA,NA,NA,NA,NA,NA,pro_prof,pp17.png,portrait,social_media,1,0.75,2,435058_study2,2020-11-13_20h05.20.811,alcohol_value_task,2020.1.3,MacIntel,60,0.986575,NA,NA,0,22,22,22,1,alcohol,beer,pro-alcohol,professional,0.8011006992557882
NA,NA,NA,NA,NA,NA,NA,NA,NA,NA,NA,NA,NA,NA,NA,NA,NA,NA,NA,NA,NA,NA,NA,SDC10885,1,NA,NA,NA,NA,NA,NA,anti_soc,as10.png,portrait,website,0.75,0.5,2,435058_study2,2020-11-13_20h05.20.811,alcohol_value_task,2020.1.3,MacIntel,60,0.96584,NA,NA,0,23,23,23,1,alcohol,beer,anti-alcohol,peer-produced,-1.2950087011564129
NA,NA,NA,NA,NA,NA,NA,NA,NA,NA,NA,NA,NA,NA,NA,NA,NA,NA,NA,NA,NA,NA,NA,SDC11162,1,NA,NA,NA,NA,NA,NA,anti_soc,as29.png,portrait,social_media,1,0.75,2,435058_study2,2020-11-13_20h05.20.811,alcohol_value_task,2020.1.3,MacIntel,60,1.77033,NA,NA,0,24,24,24,1,alcohol,beer,anti-alcohol,peer-produced,-1.2950087011564129
NA,NA,NA,NA,NA,NA,NA,NA,NA,NA,NA,NA,NA,NA,NA,NA,NA,NA,NA,NA,NA,NA,NA,SDC10885,1,NA,NA,NA,NA,NA,NA,anti_prof,ap87.png,landscape,social_media,0.25,0.75,2,435058_study2,2020-11-13_20h05.20.811,alcohol_value_task,2020.1.3,MacIntel,60,1.169805,NA,NA,0,25,25,25,1,alcohol,beer,anti-alcohol,professional,-1.2950087011564129
NA,NA,NA,NA,NA,NA,NA,NA,NA,NA,NA,NA,NA,NA,NA,NA,NA,NA,NA,NA,NA,NA,NA,SDC11162,1,NA,NA,NA,NA,NA,NA,anti_prof,ap46.png,landscape,website,0.5,0.5,2,435058_study2,2020-11-13_20h05.20.811,alcohol_value_task,2020.1.3,MacIntel,60,0.86947,NA,NA,0,26,26,26,1,alcohol,beer,anti-alcohol,professional,-1.2950087011564129
NA,NA,NA,NA,NA,NA,NA,NA,NA,NA,NA,NA,NA,NA,NA,NA,NA,NA,NA,NA,NA,NA,NA,SDC10893,NA,1,NA,NA,NA,NA,NA,pro_soc,ps27.png,portrait,website,0.75,0.5,2,435058_study2,2020-11-13_20h05.20.811,alcohol_value_task,2020.1.3,MacIntel,60,NA,NA,NA,0,27,27,27,1,alcohol,beer,pro-alcohol,peer-produced,NA
NA,NA,NA,NA,NA,NA,NA,NA,NA,NA,NA,NA,NA,NA,NA,NA,NA,NA,NA,NA,NA,NA,NA,SDC10893,1,NA,NA,NA,NA,NA,NA,anti_prof,ap53.png,landscape,social_media,0.75,0.25,2,435058_study2,2020-11-13_20h05.20.811,alcohol_value_task,2020.1.3,MacIntel,60,1.06669,NA,NA,0,28,28,28,1,alcohol,beer,anti-alcohol,professional,-1.2950087011564129
NA,NA,NA,NA,NA,NA,NA,NA,NA,NA,NA,NA,NA,NA,NA,NA,NA,NA,NA,NA,NA,NA,NA,SDC11108,NA,5,NA,NA,NA,NA,NA,pro_soc,ps28.png,landscape,website,0.5,0.5,2,435058_study2,2020-11-13_20h05.20.811,alcohol_value_task,2020.1.3,MacIntel,60,NA,NA,NA,0,29,29,29,1,alcohol,spirits,pro-alcohol,peer-produced,NA
NA,NA,NA,NA,NA,NA,NA,NA,NA,NA,NA,NA,NA,NA,NA,NA,NA,NA,NA,NA,NA,NA,NA,SDC11162,5,NA,NA,NA,NA,NA,NA,pro_prof,pp60.png,portrait,website,1,0.5,2,435058_study2,2020-11-13_20h05.20.811,alcohol_value_task,2020.1.3,MacIntel,60,1.868505,NA,NA,0,30,30,30,1,alcohol,beer,pro-alcohol,professional,1.499803832726522
NA,NA,NA,NA,NA,NA,NA,NA,NA,NA,NA,NA,NA,NA,NA,NA,NA,NA,NA,NA,NA,NA,NA,SDC11108,4,NA,NA,NA,NA,NA,NA,anti_prof,ap73.png,portrait,website,1,1,2,435058_study2,2020-11-13_20h05.20.811,alcohol_value_task,2020.1.3,MacIntel,60,1.23525,NA,NA,0,31,31,31,1,alcohol,spirits,anti-alcohol,professional,0.8011006992557882
NA,NA,NA,NA,NA,NA,NA,NA,NA,NA,NA,NA,NA,NA,NA,NA,NA,NA,NA,NA,NA,NA,NA,SDC10893,4,NA,NA,NA,NA,NA,NA,anti_soc,as28.png,portrait,website,0.75,1,2,435058_study2,2020-11-13_20h05.20.811,alcohol_value_task,2020.1.3,MacIntel,60,0.785335,NA,NA,0,32,32,32,1,alcohol,beer,anti-alcohol,peer-produced,0.8011006992557882
NA,NA,NA,NA,NA,NA,NA,NA,NA,NA,NA,NA,NA,NA,NA,NA,NA,NA,NA,NA,NA,NA,NA,SDC11091,4,NA,NA,NA,NA,NA,NA,pro_soc,ps15.png,portrait,social_media,1,0.25,2,435058_study2,2020-11-13_20h05.20.811,alcohol_value_task,2020.1.3,MacIntel,60,0.919325,NA,NA,0,33,33,33,1,alcohol,spirits,pro-alcohol,peer-produced,0.8011006992557882
NA,NA,NA,NA,NA,NA,NA,NA,NA,NA,NA,NA,NA,NA,NA,NA,NA,NA,NA,NA,NA,NA,NA,SDC11108,2,NA,NA,NA,NA,NA,NA,anti_soc,as11.png,portrait,website,0.5,0.75,2,435058_study2,2020-11-13_20h05.20.811,alcohol_value_task,2020.1.3,MacIntel,60,0.8858,NA,NA,0,34,34,34,1,alcohol,spirits,anti-alcohol,peer-produced,-0.5963055676856792
NA,NA,NA,NA,NA,NA,NA,NA,NA,NA,NA,NA,NA,NA,NA,NA,NA,NA,NA,NA,NA,NA,NA,SDC10893,4,NA,NA,NA,NA,NA,NA,pro_prof,pp39.png,portrait,website,0.25,0.75,2,435058_study2,2020-11-13_20h05.20.811,alcohol_value_task,2020.1.3,MacIntel,60,1.457495,NA,NA,0,35,35,35,1,alcohol,beer,pro-alcohol,professional,0.8011006992557882
NA,NA,NA,NA,NA,NA,NA,NA,NA,NA,NA,NA,NA,NA,NA,NA,NA,NA,NA,NA,NA,NA,NA,SDC10898,4,NA,NA,NA,NA,NA,NA,pro_soc,ps16.png,portrait,website,1,0.75,2,435058_study2,2020-11-13_20h05.20.811,alcohol_value_task,2020.1.3,MacIntel,60,0.937525,NA,NA,0,36,36,36,1,alcohol,beer,pro-alcohol,peer-produced,0.8011006992557882
NA,NA,NA,NA,NA,NA,NA,NA,NA,NA,NA,NA,NA,NA,NA,NA,NA,NA,NA,NA,NA,NA,NA,SDC11108,4,NA,NA,NA,NA,NA,NA,pro_prof,pp27.png,portrait,social_media,0.5,1,2,435058_study2,2020-11-13_20h05.20.811,alcohol_value_task,2020.1.3,MacIntel,60,1.014325,NA,NA,0,37,37,37,1,alcohol,spirits,pro-alcohol,professional,0.8011006992557882
NA,NA,NA,NA,NA,NA,NA,NA,NA,NA,NA,NA,NA,NA,NA,NA,NA,NA,NA,NA,NA,NA,NA,SDC11091,2,NA,NA,NA,NA,NA,NA,anti_soc,as23.png,portrait,social_media,0.5,0.25,2,435058_study2,2020-11-13_20h05.20.811,alcohol_value_task,2020.1.3,MacIntel,60,0.466605,NA,NA,0,38,38,38,1,alcohol,spirits,anti-alcohol,peer-produced,-0.5963055676856792
NA,NA,NA,NA,NA,NA,NA,NA,NA,NA,NA,NA,NA,NA,NA,NA,NA,NA,NA,NA,NA,NA,NA,SDC10808,5,NA,NA,NA,NA,NA,NA,pro_soc,ps52.png,landscape,website,0.75,0.5,2,435058_study2,2020-11-13_20h05.20.811,alcohol_value_task,2020.1.3,MacIntel,60,0.586455,NA,NA,0,39,39,39,1,non-alcohol,soft_drinks,pro-alcohol,peer-produced,1.499803832726522
NA,NA,NA,NA,NA,NA,NA,NA,NA,NA,NA,NA,NA,NA,NA,NA,NA,NA,NA,NA,NA,NA,NA,SDC11091,5,NA,NA,NA,NA,NA,NA,pro_prof,pp24.png,portrait,website,0.25,0.5,2,435058_study2,2020-11-13_20h05.20.811,alcohol_value_task,2020.1.3,MacIntel,60,1.169575,NA,NA,0,40,40,40,1,alcohol,spirits,pro-alcohol,professional,1.499803832726522
NA,NA,NA,NA,NA,NA,NA,NA,NA,NA,NA,NA,NA,NA,NA,NA,NA,NA,NA,NA,NA,NA,NA,SDC11091,2,NA,NA,NA,NA,NA,NA,anti_prof,ap83.png,portrait,social_media,0.25,0.75,2,435058_study2,2020-11-13_20h05.20.811,alcohol_value_task,2020.1.3,MacIntel,60,0.73507,NA,NA,0,41,41,41,1,alcohol,spirits,anti-alcohol,professional,-0.5963055676856792
NA,NA,NA,NA,NA,NA,NA,NA,NA,NA,NA,NA,NA,NA,NA,NA,NA,NA,NA,NA,NA,NA,NA,SDC10898,5,NA,NA,NA,NA,NA,NA,anti_prof,ap54.png,portrait,website,1,0.75,2,435058_study2,2020-11-13_20h05.20.811,alcohol_value_task,2020.1.3,MacIntel,60,1.01604,NA,NA,0,42,42,42,1,alcohol,beer,anti-alcohol,professional,1.499803832726522
NA,NA,NA,NA,NA,NA,NA,NA,NA,NA,NA,NA,NA,NA,NA,NA,NA,NA,NA,NA,NA,NA,NA,SDC12115,4,NA,NA,NA,NA,NA,NA,pro_soc,ps57.png,portrait,social_media,0.25,0.25,2,435058_study2,2020-11-13_20h05.20.811,alcohol_value_task,2020.1.3,MacIntel,60,1.315445,NA,NA,0,43,43,43,1,alcohol,spirits,pro-alcohol,peer-produced,0.8011006992557882
14,space,2.425585,2,5.97355,1,5.38353,2,4.624575,2,8.017745,2,10.762075,space,8.24794,space,4.34805,space,7.80769,space,5.211505,space,3.253145,SDC11022,4,NA,0,0,0,0,1,pro_soc,ps22.png,landscape,social_media,1,1,1,435047_study2,2020-11-13_19h50.36.160,alcohol_value_task,2020.1.3,MacIntel,60,1.92744,NA,NA,NA,NA,NA,NA,NA,alcohol,alcopops,pro-alcohol,peer-produced,0.8011006992557882
NA,NA,NA,NA,NA,NA,NA,NA,NA,NA,NA,NA,NA,NA,NA,NA,NA,NA,NA,NA,NA,NA,NA,SDC11022,1,NA,0,1,1,1,1,anti_soc,as47.png,portrait,social_media,1,0.5,1,435047_study2,2020-11-13_19h50.36.160,alcohol_value_task,2020.1.3,MacIntel,60,1.029085,NA,NA,NA,NA,NA,NA,NA,alcohol,alcopops,anti-alcohol,peer-produced,-1.2950087011564129
NA,NA,NA,NA,NA,NA,NA,NA,NA,NA,NA,NA,NA,NA,NA,NA,NA,NA,NA,NA,NA,NA,NA,SDC11009,5,NA,0,2,2,2,1,pro_soc,ps47.png,portrait,website,0.5,1,1,435047_study2,2020-11-13_19h50.36.160,alcohol_value_task,2020.1.3,MacIntel,60,1.694575,NA,NA,NA,NA,NA,NA,NA,alcohol,alcopops,pro-alcohol,peer-produced,1.499803832726522
NA,NA,NA,NA,NA,NA,NA,NA,NA,NA,NA,NA,NA,NA,NA,NA,NA,NA,NA,NA,NA,NA,NA,SDC10978,3,NA,0,3,3,3,1,pro_soc,ps20.png,portrait,website,1,0.25,1,435047_study2,2020-11-13_19h50.36.160,alcohol_value_task,2020.1.3,MacIntel,60,1.284285,NA,NA,NA,NA,NA,NA,NA,non-alcohol,soft_drinks,pro-alcohol,peer-produced,0.10239756578505452
NA,NA,NA,NA,NA,NA,NA,NA,NA,NA,NA,NA,NA,NA,NA,NA,NA,NA,NA,NA,NA,NA,NA,SDC11009,1,NA,0,4,4,4,1,anti_soc,as22.png,portrait,website,0.5,0.25,1,435047_study2,2020-11-13_19h50.36.160,alcohol_value_task,2020.1.3,MacIntel,60,0.548995,NA,NA,NA,NA,NA,NA,NA,alcohol,alcopops,anti-alcohol,peer-produced,-1.2950087011564129
NA,NA,NA,NA,NA,NA,NA,NA,NA,NA,NA,NA,NA,NA,NA,NA,NA,NA,NA,NA,NA,NA,NA,SDC11128,2,NA,0,5,5,5,1,pro_soc,ps33.png,landscape,website,0.75,0.75,1,435047_study2,2020-11-13_19h50.36.160,alcohol_value_task,2020.1.3,MacIntel,60,0.552085,NA,NA,NA,NA,NA,NA,NA,alcohol,wine,pro-alcohol,peer-produced,-0.5963055676856792
NA,NA,NA,NA,NA,NA,NA,NA,NA,NA,NA,NA,NA,NA,NA,NA,NA,NA,NA,NA,NA,NA,NA,SDC10978,1,NA,0,6,6,6,1,anti_soc,as14.png,portrait,social_media,0.75,1,1,435047_study2,2020-11-13_19h50.36.160,alcohol_value_task,2020.1.3,MacIntel,60,0.461725,NA,NA,NA,NA,NA,NA,NA,non-alcohol,soft_drinks,anti-alcohol,peer-produced,-1.2950087011564129
NA,NA,NA,NA,NA,NA,NA,NA,NA,NA,NA,NA,NA,NA,NA,NA,NA,NA,NA,NA,NA,NA,NA,SDC11022,4,NA,0,7,7,7,1,pro_prof,pp26.png,portrait,social_media,0.5,0.25,1,435047_study2,2020-11-13_19h50.36.160,alcohol_value_task,2020.1.3,MacIntel,60,0.466,NA,NA,NA,NA,NA,NA,NA,alcohol,alcopops,pro-alcohol,professional,0.8011006992557882
NA,NA,NA,NA,NA,NA,NA,NA,NA,NA,NA,NA,NA,NA,NA,NA,NA,NA,NA,NA,NA,NA,NA,SDC11022,1,NA,0,8,8,8,1,anti_prof,ap67.png,portrait,social_media,0.25,0.25,1,435047_study2,2020-11-13_19h50.36.160,alcohol_value_task,2020.1.3,MacIntel,60,0.501035,NA,NA,NA,NA,NA,NA,NA,alcohol,alcopops,anti-alcohol,professional,-1.2950087011564129
NA,NA,NA,NA,NA,NA,NA,NA,NA,NA,NA,NA,NA,NA,NA,NA,NA,NA,NA,NA,NA,NA,NA,SDC11009,4,NA,0,9,9,9,1,pro_prof,pp14.png,portrait,website,0.5,0.75,1,435047_study2,2020-11-13_19h50.36.160,alcohol_value_task,2020.1.3,MacIntel,60,0.517875,NA,NA,NA,NA,NA,NA,NA,alcohol,alcopops,pro-alcohol,professional,0.8011006992557882
NA,NA,NA,NA,NA,NA,NA,NA,NA,NA,NA,NA,NA,NA,NA,NA,NA,NA,NA,NA,NA,NA,NA,SDC10978,3,NA,0,10,10,10,1,pro_prof,pp13.png,portrait,social_media,0.75,0.75,1,435047_study2,2020-11-13_19h50.36.160,alcohol_value_task,2020.1.3,MacIntel,60,1.135465,NA,NA,NA,NA,NA,NA,NA,non-alcohol,soft_drinks,pro-alcohol,professional,0.10239756578505452
NA,NA,NA,NA,NA,NA,NA,NA,NA,NA,NA,NA,NA,NA,NA,NA,NA,NA,NA,NA,NA,NA,NA,SDC11009,2,NA,0,11,11,11,1,anti_prof,ap4.png,landscape,social_media,0.25,1,1,435047_study2,2020-11-13_19h50.36.160,alcohol_value_task,2020.1.3,MacIntel,60,0.42823,NA,NA,NA,NA,NA,NA,NA,alcohol,alcopops,anti-alcohol,professional,-0.5963055676856792
NA,NA,NA,NA,NA,NA,NA,NA,NA,NA,NA,NA,NA,NA,NA,NA,NA,NA,NA,NA,NA,NA,NA,SDC11128,2,NA,0,12,12,12,1,pro_prof,pp54.png,portrait,website,0.25,0.75,1,435047_study2,2020-11-13_19h50.36.160,alcohol_value_task,2020.1.3,MacIntel,60,1.028805,NA,NA,NA,NA,NA,NA,NA,alcohol,wine,pro-alcohol,professional,-0.5963055676856792
NA,NA,NA,NA,NA,NA,NA,NA,NA,NA,NA,NA,NA,NA,NA,NA,NA,NA,NA,NA,NA,NA,NA,SDC11010,3,NA,0,13,13,13,1,pro_soc,ps51.png,portrait,social_media,0.75,0.25,1,435047_study2,2020-11-13_19h50.36.160,alcohol_value_task,2020.1.3,MacIntel,60,0.32935,NA,NA,NA,NA,NA,NA,NA,alcohol,alcopops,pro-alcohol,peer-produced,0.10239756578505452
NA,NA,NA,NA,NA,NA,NA,NA,NA,NA,NA,NA,NA,NA,NA,NA,NA,NA,NA,NA,NA,NA,NA,SDC11010,1,NA,0,14,14,14,1,pro_prof,pp42.png,portrait,website,0.25,0.75,1,435047_study2,2020-11-13_19h50.36.160,alcohol_value_task,2020.1.3,MacIntel,60,0.428825,NA,NA,NA,NA,NA,NA,NA,alcohol,alcopops,pro-alcohol,professional,-1.2950087011564129
NA,NA,NA,NA,NA,NA,NA,NA,NA,NA,NA,NA,NA,NA,NA,NA,NA,NA,NA,NA,NA,NA,NA,SDC10978,NA,5,0,15,15,15,1,anti_prof,ap23.png,portrait,social_media,0.5,1,1,435047_study2,2020-11-13_19h50.36.160,alcohol_value_task,2020.1.3,MacIntel,60,NA,NA,NA,NA,NA,NA,NA,NA,non-alcohol,soft_drinks,anti-alcohol,professional,NA
NA,NA,NA,NA,NA,NA,NA,NA,NA,NA,NA,NA,NA,NA,NA,NA,NA,NA,NA,NA,NA,NA,NA,SDC11128,1,NA,0,16,16,16,1,anti_prof,ap16.png,portrait,social_media,0.75,1,1,435047_study2,2020-11-13_19h50.36.160,alcohol_value_task,2020.1.3,MacIntel,60,0.333575,NA,NA,NA,NA,NA,NA,NA,alcohol,wine,anti-alcohol,professional,-1.2950087011564129
NA,NA,NA,NA,NA,NA,NA,NA,NA,NA,NA,NA,NA,NA,NA,NA,NA,NA,NA,NA,NA,NA,NA,SDC11010,2,NA,0,17,17,17,1,anti_prof,ap9.png,landscape,social_media,0.75,0.5,1,435047_study2,2020-11-13_19h50.36.160,alcohol_value_task,2020.1.3,MacIntel,60,0.386625,NA,NA,NA,NA,NA,NA,NA,alcohol,alcopops,anti-alcohol,professional,-0.5963055676856792
NA,NA,NA,NA,NA,NA,NA,NA,NA,NA,NA,NA,NA,NA,NA,NA,NA,NA,NA,NA,NA,NA,NA,SDC11128,1,NA,0,18,18,18,1,anti_soc,as48.png,portrait,social_media,0.5,0.75,1,435047_study2,2020-11-13_19h50.36.160,alcohol_value_task,2020.1.3,MacIntel,60,0.48694,NA,NA,NA,NA,NA,NA,NA,alcohol,wine,anti-alcohol,peer-produced,-1.2950087011564129
NA,NA,NA,NA,NA,NA,NA,NA,NA,NA,NA,NA,NA,NA,NA,NA,NA,NA,NA,NA,NA,NA,NA,SDC10859,5,NA,0,19,19,19,1,anti_prof,ap82.png,landscape,website,0.25,1,1,435047_study2,2020-11-13_19h50.36.160,alcohol_value_task,2020.1.3,MacIntel,60,0.68386,NA,NA,NA,NA,NA,NA,NA,non-alcohol,miscellaneous,anti-alcohol,professional,1.499803832726522
NA,NA,NA,NA,NA,NA,NA,NA,NA,NA,NA,NA,NA,NA,NA,NA,NA,NA,NA,NA,NA,NA,NA,SDC10859,5,NA,0,20,20,20,1,pro_prof,pp58.png,portrait,website,1,0.5,1,435047_study2,2020-11-13_19h50.36.160,alcohol_value_task,2020.1.3,MacIntel,60,0.446885,NA,NA,NA,NA,NA,NA,NA,non-alcohol,miscellaneous,pro-alcohol,professional,1.499803832726522
NA,NA,NA,NA,NA,NA,NA,NA,NA,NA,NA,NA,NA,NA,NA,NA,NA,NA,NA,NA,NA,NA,NA,SDC10845,5,NA,0,21,21,21,1,anti_prof,ap49.png,landscape,social_media,0.25,1,1,435047_study2,2020-11-13_19h50.36.160,alcohol_value_task,2020.1.3,MacIntel,60,0.44897,NA,NA,NA,NA,NA,NA,NA,non-alcohol,miscellaneous,anti-alcohol,professional,1.499803832726522
NA,NA,NA,NA,NA,NA,NA,NA,NA,NA,NA,NA,NA,NA,NA,NA,NA,NA,NA,NA,NA,NA,NA,SDC10845,3,NA,0,22,22,22,1,pro_prof,pp51.png,portrait,social_media,0.25,1,1,435047_study2,2020-11-13_19h50.36.160,alcohol_value_task,2020.1.3,MacIntel,60,0.28692,NA,NA,NA,NA,NA,NA,NA,non-alcohol,miscellaneous,pro-alcohol,professional,0.10239756578505452
NA,NA,NA,NA,NA,NA,NA,NA,NA,NA,NA,NA,NA,NA,NA,NA,NA,NA,NA,NA,NA,NA,NA,SDC11144,5,NA,0,23,23,23,1,pro_prof,pp15.png,portrait,social_media,0.75,0.25,1,435047_study2,2020-11-13_19h50.36.160,alcohol_value_task,2020.1.3,MacIntel,60,0.401715,NA,NA,NA,NA,NA,NA,NA,alcohol,alcopops,pro-alcohol,professional,1.499803832726522
NA,NA,NA,NA,NA,NA,NA,NA,NA,NA,NA,NA,NA,NA,NA,NA,NA,NA,NA,NA,NA,NA,NA,SDC11010,1,NA,0,24,24,24,1,anti_soc,as56.png,portrait,social_media,0.5,0.25,1,435047_study2,2020-11-13_19h50.36.160,alcohol_value_task,2020.1.3,MacIntel,60,0.518285,NA,NA,NA,NA,NA,NA,NA,alcohol,alcopops,anti-alcohol,peer-produced,-1.2950087011564129
NA,NA,NA,NA,NA,NA,NA,NA,NA,NA,NA,NA,NA,NA,NA,NA,NA,NA,NA,NA,NA,NA,NA,SDC10859,5,NA,0,25,25,25,1,anti_soc,as16.png,portrait,social_media,0.75,0.25,1,435047_study2,2020-11-13_19h50.36.160,alcohol_value_task,2020.1.3,MacIntel,60,0.35361,NA,NA,NA,NA,NA,NA,NA,non-alcohol,miscellaneous,anti-alcohol,peer-produced,1.499803832726522
NA,NA,NA,NA,NA,NA,NA,NA,NA,NA,NA,NA,NA,NA,NA,NA,NA,NA,NA,NA,NA,NA,NA,SDC10845,5,NA,0,26,26,26,1,anti_soc,as8.png,portrait,website,1,0.75,1,435047_study2,2020-11-13_19h50.36.160,alcohol_value_task,2020.1.3,MacIntel,60,0.38578,NA,NA,NA,NA,NA,NA,NA,non-alcohol,miscellaneous,anti-alcohol,peer-produced,1.499803832726522
NA,NA,NA,NA,NA,NA,NA,NA,NA,NA,NA,NA,NA,NA,NA,NA,NA,NA,NA,NA,NA,NA,NA,SDC11144,1,NA,0,27,27,27,1,anti_prof,ap77.png,portrait,social_media,1,0.25,1,435047_study2,2020-11-13_19h50.36.160,alcohol_value_task,2020.1.3,MacIntel,60,0.498765,NA,NA,NA,NA,NA,NA,NA,alcohol,alcopops,anti-alcohol,professional,-1.2950087011564129
NA,NA,NA,NA,NA,NA,NA,NA,NA,NA,NA,NA,NA,NA,NA,NA,NA,NA,NA,NA,NA,NA,NA,SDC12112,4,NA,0,28,28,28,1,pro_prof,pp32.png,portrait,website,0.75,0.25,1,435047_study2,2020-11-13_19h50.36.160,alcohol_value_task,2020.1.3,MacIntel,60,0.896765,NA,NA,NA,NA,NA,NA,NA,alcohol,wine,pro-alcohol,professional,0.8011006992557882
NA,NA,NA,NA,NA,NA,NA,NA,NA,NA,NA,NA,NA,NA,NA,NA,NA,NA,NA,NA,NA,NA,NA,SDC11144,1,NA,0,29,29,29,1,anti_soc,as43.png,portrait,social_media,0.75,0.25,1,435047_study2,2020-11-13_19h50.36.160,alcohol_value_task,2020.1.3,MacIntel,60,0.38686,NA,NA,NA,NA,NA,NA,NA,alcohol,alcopops,anti-alcohol,peer-produced,-1.2950087011564129
NA,NA,NA,NA,NA,NA,NA,NA,NA,NA,NA,NA,NA,NA,NA,NA,NA,NA,NA,NA,NA,NA,NA,SDC10859,2,NA,0,30,30,30,1,pro_soc,ps25.png,portrait,website,1,0.75,1,435047_study2,2020-11-13_19h50.36.160,alcohol_value_task,2020.1.3,MacIntel,60,0.446745,NA,NA,NA,NA,NA,NA,NA,non-alcohol,miscellaneous,pro-alcohol,peer-produced,-0.5963055676856792
NA,NA,NA,NA,NA,NA,NA,NA,NA,NA,NA,NA,NA,NA,NA,NA,NA,NA,NA,NA,NA,NA,NA,SDC12112,1,NA,0,31,31,31,1,anti_soc,as44.png,portrait,website,0.5,0.5,1,435047_study2,2020-11-13_19h50.36.160,alcohol_value_task,2020.1.3,MacIntel,60,0.38636,NA,NA,NA,NA,NA,NA,NA,alcohol,wine,anti-alcohol,peer-produced,-1.2950087011564129
NA,NA,NA,NA,NA,NA,NA,NA,NA,NA,NA,NA,NA,NA,NA,NA,NA,NA,NA,NA,NA,NA,NA,SDC10708,4,NA,0,32,32,32,1,pro_prof,pp12.png,portrait,website,0.75,1,1,435047_study2,2020-11-13_19h50.36.160,alcohol_value_task,2020.1.3,MacIntel,60,0.42506,NA,NA,NA,NA,NA,NA,NA,alcohol,wine,pro-alcohol,professional,0.8011006992557882
NA,NA,NA,NA,NA,NA,NA,NA,NA,NA,NA,NA,NA,NA,NA,NA,NA,NA,NA,NA,NA,NA,NA,SDC12112,1,NA,0,33,33,33,1,anti_prof,ap39.png,portrait,social_media,0.75,0.25,1,435047_study2,2020-11-13_19h50.36.160,alcohol_value_task,2020.1.3,MacIntel,60,0.551565,NA,NA,NA,NA,NA,NA,NA,alcohol,wine,anti-alcohol,professional,-1.2950087011564129
NA,NA,NA,NA,NA,NA,NA,NA,NA,NA,NA,NA,NA,NA,NA,NA,NA,NA,NA,NA,NA,NA,NA,SDC10708,2,NA,0,34,34,34,1,anti_prof,ap69.png,portrait,website,0.25,0.5,1,435047_study2,2020-11-13_19h50.36.160,alcohol_value_task,2020.1.3,MacIntel,60,0.467955,NA,NA,NA,NA,NA,NA,NA,alcohol,wine,anti-alcohol,professional,-0.5963055676856792
NA,NA,NA,NA,NA,NA,NA,NA,NA,NA,NA,NA,NA,NA,NA,NA,NA,NA,NA,NA,NA,NA,NA,SDC11140,5,NA,0,35,35,35,1,pro_prof,pp28.png,portrait,website,0.5,0.75,1,435047_study2,2020-11-13_19h50.36.160,alcohol_value_task,2020.1.3,MacIntel,60,0.63477,NA,NA,NA,NA,NA,NA,NA,alcohol,alcopops,pro-alcohol,professional,1.499803832726522
NA,NA,NA,NA,NA,NA,NA,NA,NA,NA,NA,NA,NA,NA,NA,NA,NA,NA,NA,NA,NA,NA,NA,SDC10708,1,NA,0,36,36,36,1,anti_soc,as58.png,portrait,website,1,0.25,1,435047_study2,2020-11-13_19h50.36.160,alcohol_value_task,2020.1.3,MacIntel,60,0.55106,NA,NA,NA,NA,NA,NA,NA,alcohol,wine,anti-alcohol,peer-produced,-1.2950087011564129
NA,NA,NA,NA,NA,NA,NA,NA,NA,NA,NA,NA,NA,NA,NA,NA,NA,NA,NA,NA,NA,NA,NA,SDC10845,5,NA,0,37,37,37,1,pro_soc,ps14.png,portrait,social_media,0.75,0.25,1,435047_study2,2020-11-13_19h50.36.160,alcohol_value_task,2020.1.3,MacIntel,60,0.421195,NA,NA,NA,NA,NA,NA,NA,non-alcohol,miscellaneous,pro-alcohol,peer-produced,1.499803832726522
NA,NA,NA,NA,NA,NA,NA,NA,NA,NA,NA,NA,NA,NA,NA,NA,NA,NA,NA,NA,NA,NA,NA,SDC11140,1,NA,0,38,38,38,1,anti_soc,as46.png,portrait,social_media,0.75,0.75,1,435047_study2,2020-11-13_19h50.36.160,alcohol_value_task,2020.1.3,MacIntel,60,0.36816,NA,NA,NA,NA,NA,NA,NA,alcohol,alcopops,anti-alcohol,peer-produced,-1.2950087011564129
NA,NA,NA,NA,NA,NA,NA,NA,NA,NA,NA,NA,NA,NA,NA,NA,NA,NA,NA,NA,NA,NA,NA,SDC11144,4,NA,0,39,39,39,1,pro_soc,ps7.png,landscape,social_media,1,0.25,1,435047_study2,2020-11-13_19h50.36.160,alcohol_value_task,2020.1.3,MacIntel,60,0.734045,NA,NA,NA,NA,NA,NA,NA,alcohol,alcopops,pro-alcohol,peer-produced,0.8011006992557882
NA,NA,NA,NA,NA,NA,NA,NA,NA,NA,NA,NA,NA,NA,NA,NA,NA,NA,NA,NA,NA,NA,NA,SDC11012,2,NA,0,40,40,40,1,anti_soc,as25.png,portrait,social_media,0.25,1,1,435047_study2,2020-11-13_19h50.36.160,alcohol_value_task,2020.1.3,MacIntel,60,0.78271,NA,NA,NA,NA,NA,NA,NA,alcohol,alcopops,anti-alcohol,peer-produced,-0.5963055676856792
NA,NA,NA,NA,NA,NA,NA,NA,NA,NA,NA,NA,NA,NA,NA,NA,NA,NA,NA,NA,NA,NA,NA,SDC11012,2,NA,0,41,41,41,1,pro_prof,pp44.png,portrait,social_media,0.5,1,1,435047_study2,2020-11-13_19h50.36.160,alcohol_value_task,2020.1.3,MacIntel,60,0.632485,NA,NA,NA,NA,NA,NA,NA,alcohol,alcopops,pro-alcohol,professional,-0.5963055676856792
NA,NA,NA,NA,NA,NA,NA,NA,NA,NA,NA,NA,NA,NA,NA,NA,NA,NA,NA,NA,NA,NA,NA,SDC12112,4,NA,0,42,42,42,1,pro_soc,ps29.png,portrait,social_media,1,0.75,1,435047_study2,2020-11-13_19h50.36.160,alcohol_value_task,2020.1.3,MacIntel,60,0.380465,NA,NA,NA,NA,NA,NA,NA,alcohol,wine,pro-alcohol,peer-produced,0.8011006992557882
NA,NA,NA,NA,NA,NA,NA,NA,NA,NA,NA,NA,NA,NA,NA,NA,NA,NA,NA,NA,NA,NA,NA,SDC11140,1,NA,0,43,43,43,1,anti_prof,ap71.png,landscape,social_media,0.25,1,1,435047_study2,2020-11-13_19h50.36.160,alcohol_value_task,2020.1.3,MacIntel,60,0.715335,NA,NA,NA,NA,NA,NA,NA,alcohol,alcopops,anti-alcohol,professional,-1.2950087011564129
NA,NA,NA,NA,NA,NA,NA,NA,NA,NA,NA,NA,NA,NA,NA,NA,NA,NA,NA,NA,NA,NA,NA,SDC11022,NA,4,NA,NA,NA,NA,NA,pro_soc,ps49.png,landscape,website,1,1,2,435047_study2,2020-11-13_19h50.36.160,alcohol_value_task,2020.1.3,MacIntel,60,NA,space,1.798245,0,0,0,0,1,alcohol,alcopops,pro-alcohol,peer-produced,NA
NA,NA,NA,NA,NA,NA,NA,NA,NA,NA,NA,NA,NA,NA,NA,NA,NA,NA,NA,NA,NA,NA,NA,SDC11022,2,NA,NA,NA,NA,NA,NA,anti_soc,as4.png,portrait,website,1,0.25,2,435047_study2,2020-11-13_19h50.36.160,alcohol_value_task,2020.1.3,MacIntel,60,0.66786,NA,NA,0,1,1,1,1,alcohol,alcopops,anti-alcohol,peer-produced,-0.5963055676856792
NA,NA,NA,NA,NA,NA,NA,NA,NA,NA,NA,NA,NA,NA,NA,NA,NA,NA,NA,NA,NA,NA,NA,SDC11022,1,NA,NA,NA,NA,NA,NA,anti_prof,ap52.png,portrait,website,0.25,0.75,2,435047_study2,2020-11-13_19h50.36.160,alcohol_value_task,2020.1.3,MacIntel,60,0.354285,NA,NA,0,2,2,2,1,alcohol,alcopops,anti-alcohol,professional,-1.2950087011564129
NA,NA,NA,NA,NA,NA,NA,NA,NA,NA,NA,NA,NA,NA,NA,NA,NA,NA,NA,NA,NA,NA,NA,SDC11009,1,NA,NA,NA,NA,NA,NA,anti_prof,ap32.png,landscape,social_media,0.5,1,2,435047_study2,2020-11-13_19h50.36.160,alcohol_value_task,2020.1.3,MacIntel,60,0.568405,NA,NA,0,3,3,3,1,alcohol,alcopops,anti-alcohol,professional,-1.2950087011564129
NA,NA,NA,NA,NA,NA,NA,NA,NA,NA,NA,NA,NA,NA,NA,NA,NA,NA,NA,NA,NA,NA,NA,SDC11009,1,NA,NA,NA,NA,NA,NA,anti_soc,as45.png,portrait,website,0.25,1,2,435047_study2,2020-11-13_19h50.36.160,alcohol_value_task,2020.1.3,MacIntel,60,0.55335,NA,NA,0,4,4,4,1,alcohol,alcopops,anti-alcohol,peer-produced,-1.2950087011564129
NA,NA,NA,NA,NA,NA,NA,NA,NA,NA,NA,NA,NA,NA,NA,NA,NA,NA,NA,NA,NA,NA,NA,SDC11009,4,NA,NA,NA,NA,NA,NA,pro_soc,ps58.png,portrait,website,0.25,0.75,2,435047_study2,2020-11-13_19h50.36.160,alcohol_value_task,2020.1.3,MacIntel,60,0.41864,NA,NA,0,5,5,5,1,alcohol,alcopops,pro-alcohol,peer-produced,0.8011006992557882
NA,NA,NA,NA,NA,NA,NA,NA,NA,NA,NA,NA,NA,NA,NA,NA,NA,NA,NA,NA,NA,NA,NA,SDC10978,5,NA,NA,NA,NA,NA,NA,anti_soc,as6.png,portrait,social_media,0.75,0.5,2,435047_study2,2020-11-13_19h50.36.160,alcohol_value_task,2020.1.3,MacIntel,60,0.71979,NA,NA,0,6,6,6,1,non-alcohol,soft_drinks,anti-alcohol,peer-produced,1.499803832726522
NA,NA,NA,NA,NA,NA,NA,NA,NA,NA,NA,NA,NA,NA,NA,NA,NA,NA,NA,NA,NA,NA,NA,SDC10978,4,NA,NA,NA,NA,NA,NA,anti_prof,ap34.png,landscape,website,0.5,0.5,2,435047_study2,2020-11-13_19h50.36.160,alcohol_value_task,2020.1.3,MacIntel,60,0.58686,NA,NA,0,7,7,7,1,non-alcohol,soft_drinks,anti-alcohol,professional,0.8011006992557882
NA,NA,NA,NA,NA,NA,NA,NA,NA,NA,NA,NA,NA,NA,NA,NA,NA,NA,NA,NA,NA,NA,NA,SDC11128,1,NA,NA,NA,NA,NA,NA,anti_prof,ap50.png,landscape,website,1,0.5,2,435047_study2,2020-11-13_19h50.36.160,alcohol_value_task,2020.1.3,MacIntel,60,0.401215,NA,NA,0,8,8,8,1,alcohol,wine,anti-alcohol,professional,-1.2950087011564129
NA,NA,NA,NA,NA,NA,NA,NA,NA,NA,NA,NA,NA,NA,NA,NA,NA,NA,NA,NA,NA,NA,NA,SDC11022,4,NA,NA,NA,NA,NA,NA,pro_prof,pp53.png,portrait,website,1,0.5,2,435047_study2,2020-11-13_19h50.36.160,alcohol_value_task,2020.1.3,MacIntel,60,0.566475,NA,NA,0,9,9,9,1,alcohol,alcopops,pro-alcohol,professional,0.8011006992557882
NA,NA,NA,NA,NA,NA,NA,NA,NA,NA,NA,NA,NA,NA,NA,NA,NA,NA,NA,NA,NA,NA,NA,SDC11009,4,NA,NA,NA,NA,NA,NA,pro_prof,pp40.png,portrait,social_media,0.5,0.5,2,435047_study2,2020-11-13_19h50.36.160,alcohol_value_task,2020.1.3,MacIntel,60,0.584255,NA,NA,0,10,10,10,1,alcohol,alcopops,pro-alcohol,professional,0.8011006992557882
